subID	runID	runType	trial	RT	ACC	ButtonPress	CorrectButtonPress	Feedback	switch_trial	task	congruency	left_item	task_ifletter	task_ifdigit	target_left	target_right	moneyreward	moneysymbol
2	8	baseline	1	918.713	1	3	3	none	repeat	letter	incongruent	letter_first	vowel	odd	I	5	1	$
2	8	baseline	2	831.978	1	4	4	none	switch	digit	congruent	digit_first	consonant	odd	3	Z	2	$$
2	8	baseline	3	951.854	1	4	4	none	switch	letter	incongruent	letter_first	consonant	even	Z	6	2	$$
2	8	baseline	4	1400.986	1	3	3	none	repeat	letter	congruent	digit_first	vowel	even	2	A	2	$$
2	8	baseline	5	1123.756	0	4	3	none	switch	digit	incongruent	digit_first	consonant	even	4	Z	1	$
2	8	baseline	6	1276.304	1	4	4	none	repeat	digit	incongruent	letter_first	vowel	odd	U	3	2	$$
2	8	baseline	7	674.304	1	4	4	none	repeat	digit	congruent	digit_first	consonant	odd	9	P	2	$$
2	8	baseline	8	1349.088	1	3	3	none	repeat	digit	congruent	letter_first	vowel	even	U	2	1	$
2	8	baseline	9	1354.265	1	4	4	none	switch	letter	incongruent	digit_first	consonant	even	6	P	4	$$$$
2	8	baseline	10	636.892	1	4	4	none	switch	digit	incongruent	letter_first	vowel	odd	I	5	4	$$$$
2	8	baseline	11	746.943	1	4	4	none	switch	letter	congruent	letter_first	consonant	odd	X	7	4	$$$$
2	8	baseline	12	644.651	1	4	4	none	switch	digit	congruent	letter_first	consonant	odd	Z	9	4	$$$$
2	8	baseline	13	833.928	1	3	3	none	repeat	digit	congruent	digit_first	vowel	even	2	U	1	$
2	8	baseline	14	683.707	1	4	4	none	switch	letter	congruent	digit_first	consonant	odd	9	X	4	$$$$
2	8	baseline	15	1006.461	0	4	3	none	switch	digit	congruent	letter_first	vowel	even	A	6	2	$$
2	8	baseline	16	1468.64	1	4	4	none	switch	letter	congruent	digit_first	consonant	odd	3	L	2	$$
2	8	baseline	17	640.891	1	3	3	none	repeat	letter	incongruent	letter_first	vowel	odd	I	7	2	$$
2	8	baseline	18	1637.431	1	3	3	none	switch	digit	congruent	letter_first	vowel	even	U	2	4	$$$$
2	8	baseline	19	743.747	1	3	3	none	repeat	digit	congruent	letter_first	vowel	even	U	4	4	$$$$
2	8	baseline	20	827.258	0	3	4	none	repeat	digit	incongruent	letter_first	vowel	odd	A	7	1	$
2	8	baseline	21	696.191	1	3	3	none	repeat	digit	incongruent	digit_first	consonant	even	8	P	4	$$$$
2	8	baseline	22	458.348	1	4	4	none	switch	letter	congruent	letter_first	consonant	odd	X	9	1	$
2	8	baseline	23	1023.363	1	4	4	none	switch	digit	congruent	letter_first	consonant	odd	P	7	4	$$$$
2	8	baseline	24	767.475	1	3	3	none	repeat	digit	incongruent	digit_first	consonant	even	8	L	2	$$
2	8	baseline	25	717.429	1	3	3	none	repeat	digit	congruent	digit_first	vowel	even	6	U	2	$$
2	8	baseline	26	1024.398	0	3	4	none	switch	letter	incongruent	letter_first	consonant	even	Z	6	1	$
2	8	baseline	27	968.213	0	4	3	none	repeat	letter	congruent	digit_first	vowel	even	8	I	4	$$$$
2	8	baseline	28	1531.876	1	3	3	none	repeat	letter	congruent	digit_first	vowel	even	4	U	4	$$$$
2	8	baseline	29	796.838	1	4	4	none	switch	digit	incongruent	digit_first	vowel	odd	5	U	2	$$
2	8	baseline	30	715.926	1	4	4	none	switch	letter	congruent	digit_first	consonant	odd	9	Z	1	$
2	8	baseline	31	1718.776	1	4	4	none	repeat	letter	incongruent	letter_first	consonant	even	P	6	2	$$
2	8	baseline	32	693.23	1	3	3	none	switch	digit	congruent	letter_first	vowel	even	A	8	2	$$
2	8	baseline	33	1069.883	1	4	4	none	switch	letter	incongruent	digit_first	consonant	even	4	L	1	$
2	8	baseline	34	881.193	1	3	3	none	switch	digit	incongruent	digit_first	consonant	even	8	Z	1	$
2	8	baseline	35	892.079	1	4	4	none	repeat	digit	congruent	digit_first	consonant	odd	3	Z	4	$$$$
2	8	baseline	36	873.766	1	4	4	none	repeat	digit	incongruent	letter_first	vowel	odd	E	7	4	$$$$
2	8	baseline	37	1025.446	1	3	3	none	switch	letter	congruent	letter_first	vowel	even	I	4	2	$$
2	8	baseline	38	717.114	1	4	4	none	switch	digit	congruent	letter_first	consonant	odd	L	3	1	$
2	8	baseline	39	683.411	1	4	4	none	repeat	digit	incongruent	digit_first	vowel	odd	9	I	2	$$
2	8	baseline	40	634.598	1	4	4	none	repeat	digit	incongruent	digit_first	vowel	odd	3	A	4	$$$$
2	8	baseline	41	990.408	0	3	4	none	switch	letter	congruent	digit_first	consonant	odd	9	P	4	$$$$
2	8	baseline	42	1061.444	1	4	4	none	repeat	letter	incongruent	letter_first	consonant	even	P	6	1	$
2	8	baseline	43	702.881	1	3	3	none	switch	digit	incongruent	letter_first	consonant	even	L	2	2	$$
2	8	baseline	44	653.072	1	4	4	none	repeat	digit	incongruent	letter_first	vowel	odd	A	7	1	$
2	8	baseline	45	555.125	1	3	3	none	switch	letter	congruent	digit_first	vowel	even	2	A	1	$
2	8	baseline	46	1075.609	1	3	3	none	repeat	letter	incongruent	digit_first	vowel	odd	7	E	1	$
2	8	baseline	47	684.724	1	4	4	none	repeat	letter	incongruent	letter_first	consonant	even	Z	6	4	$$$$
2	8	baseline	48	718.255	1	3	3	none	repeat	letter	incongruent	digit_first	vowel	odd	9	E	1	$
2	9	incentive	1	1361.472	1	3	3	no liquid	repeat	digit	congruent	digit_first	vowel	even	4	E	1	$
2	9	incentive	2	607.897	1	3	3	liquidfeedback	repeat	digit	incongruent	letter_first	consonant	even	Z	4	2	$$
2	9	incentive	3	650.51	0	4	3	no liquid	repeat	digit	congruent	digit_first	vowel	even	8	A	1	$
2	9	incentive	4	590.198	1	4	4	liquidfeedback	switch	letter	congruent	letter_first	consonant	odd	P	7	4	$$$$
2	9	incentive	5	555.934	0	3	4	no liquid	switch	digit	congruent	digit_first	consonant	odd	3	L	4	$$$$
2	9	incentive	6	482.722	1	3	3	liquidfeedback	repeat	digit	congruent	digit_first	vowel	even	6	E	4	$$$$
2	9	incentive	7	548.038	1	4	4	liquidfeedback	repeat	digit	incongruent	digit_first	vowel	odd	5	A	4	$$$$
2	9	incentive	8	1185.876	0	4	3	no liquid	switch	letter	incongruent	letter_first	vowel	odd	U	9	2	$$
2	9	incentive	9	638.746	1	4	4	liquidfeedback	switch	digit	incongruent	letter_first	vowel	odd	U	3	1	$
2	9	incentive	10	1141.801	1	3	3	no liquid	repeat	digit	congruent	letter_first	vowel	even	E	2	2	$$
2	9	incentive	11	575.933	1	4	4	liquidfeedback	switch	letter	congruent	letter_first	consonant	odd	X	3	1	$
2	9	incentive	12	551.115	1	3	3	liquidfeedback	switch	digit	incongruent	digit_first	consonant	even	2	Z	1	$
2	9	incentive	13	557.78	0	4	3	no liquid	switch	letter	incongruent	letter_first	vowel	odd	I	7	4	$$$$
2	9	incentive	14	717.481	1	3	3	liquidfeedback	repeat	letter	incongruent	letter_first	vowel	odd	I	7	4	$$$$
2	9	incentive	15	746.371	1	3	3	no liquid	switch	digit	congruent	digit_first	vowel	even	2	E	2	$$
2	9	incentive	16	534.142	1	4	4	liquidfeedback	repeat	digit	congruent	letter_first	consonant	odd	L	5	4	$$$$
2	9	incentive	17	704.88	1	3	3	liquidfeedback	repeat	digit	incongruent	digit_first	consonant	even	2	X	4	$$$$
2	9	incentive	18	612.111	1	3	3	liquidfeedback	switch	letter	incongruent	letter_first	vowel	odd	A	7	2	$$
2	9	incentive	19	635.39	0	4	3	no liquid	repeat	letter	congruent	letter_first	vowel	even	I	4	2	$$
2	9	incentive	20	788.55	1	4	4	no liquid	repeat	letter	congruent	digit_first	consonant	odd	5	L	1	$
2	9	incentive	21	717.451	1	3	3	liquidfeedback	switch	digit	congruent	letter_first	vowel	even	E	2	2	$$
2	9	incentive	22	772.335	1	4	4	no liquid	repeat	digit	incongruent	digit_first	vowel	odd	5	A	1	$
2	9	incentive	23	616.377	1	3	3	liquidfeedback	repeat	digit	congruent	letter_first	vowel	even	A	8	2	$$
2	9	incentive	24	666.418	1	4	4	liquidfeedback	switch	letter	incongruent	digit_first	consonant	even	6	P	1	$
2	9	incentive	25	1253.412	0	4	3	no liquid	switch	digit	congruent	letter_first	vowel	even	I	6	2	$$
2	9	incentive	26	707.963	0	3	4	no liquid	switch	letter	incongruent	letter_first	consonant	even	Z	8	1	$
2	9	incentive	27	943.577	1	4	4	no liquid	repeat	letter	incongruent	digit_first	consonant	even	4	L	1	$
2	9	incentive	28	570.09	1	4	4	liquidfeedback	switch	digit	congruent	letter_first	consonant	odd	P	3	1	$
2	9	incentive	29	655.49	1	4	4	liquidfeedback	switch	letter	incongruent	letter_first	consonant	even	P	8	4	$$$$
2	9	incentive	30	563.672	0	4	3	no liquid	repeat	letter	incongruent	digit_first	vowel	odd	5	U	2	$$
2	9	incentive	31	570.697	1	4	4	liquidfeedback	repeat	letter	congruent	letter_first	consonant	odd	P	7	2	$$
2	9	incentive	32	596.714	1	3	3	liquidfeedback	switch	digit	incongruent	letter_first	consonant	even	P	2	1	$
2	9	incentive	33	544.164	1	4	4	liquidfeedback	repeat	digit	congruent	digit_first	consonant	odd	9	X	1	$
2	9	incentive	34	567.162	1	3	3	liquidfeedback	repeat	digit	incongruent	digit_first	consonant	even	4	X	4	$$$$
2	9	incentive	35	477.208	1	4	4	liquidfeedback	switch	letter	incongruent	letter_first	consonant	even	X	6	2	$$
2	9	incentive	36	885.43	1	3	3	no liquid	repeat	letter	congruent	letter_first	vowel	even	A	4	1	$
2	9	incentive	37	544.464	1	4	4	liquidfeedback	repeat	letter	congruent	digit_first	consonant	odd	7	X	4	$$$$
2	9	incentive	38	450.529	1	4	4	liquidfeedback	repeat	letter	incongruent	digit_first	consonant	even	4	X	2	$$
2	9	incentive	39	638.105	1	3	3	liquidfeedback	switch	digit	congruent	letter_first	vowel	even	U	6	1	$
2	9	incentive	40	646.113	1	4	4	liquidfeedback	repeat	digit	congruent	digit_first	consonant	odd	3	P	4	$$$$
2	9	incentive	41	568.292	1	3	3	liquidfeedback	repeat	digit	incongruent	digit_first	consonant	even	2	Z	2	$$
2	9	incentive	42	946.505	0	4	3	no liquid	switch	letter	incongruent	digit_first	vowel	odd	3	A	4	$$$$
2	9	incentive	43	435.794	1	4	4	liquidfeedback	switch	digit	incongruent	digit_first	vowel	odd	5	E	2	$$
2	9	incentive	44	448.185	1	3	3	liquidfeedback	switch	letter	incongruent	letter_first	vowel	odd	U	9	1	$
2	9	incentive	45	600.511	1	3	3	liquidfeedback	switch	digit	incongruent	digit_first	consonant	even	2	P	4	$$$$
2	9	incentive	46	424.064	1	4	4	liquidfeedback	switch	letter	congruent	digit_first	consonant	odd	3	P	4	$$$$
2	9	incentive	47	618.33	1	3	3	liquidfeedback	repeat	letter	congruent	digit_first	vowel	even	8	U	2	$$
2	9	incentive	48	645.277	1	3	3	liquidfeedback	switch	digit	congruent	letter_first	vowel	even	E	4	4	$$$$
2	10	incentive	1	604.865	1	3	3	liquidfeedback	repeat	letter	congruent	letter_first	vowel	even	U	6	1	$
2	10	incentive	2	541.125	0	3	4	no liquid	repeat	letter	incongruent	letter_first	consonant	even	X	8	4	$$$$
2	10	incentive	3	529.217	1	4	4	liquidfeedback	switch	digit	incongruent	digit_first	vowel	odd	9	A	2	$$
2	10	incentive	4	584.233	1	3	3	liquidfeedback	switch	letter	incongruent	letter_first	vowel	odd	I	7	4	$$$$
2	10	incentive	5	413.685	1	4	4	liquidfeedback	repeat	letter	incongruent	digit_first	consonant	even	8	P	1	$
2	10	incentive	6	941.993	1	4	4	no liquid	repeat	letter	congruent	letter_first	consonant	odd	P	7	1	$
2	10	incentive	7	427.822	1	4	4	liquidfeedback	switch	digit	congruent	letter_first	consonant	odd	P	5	1	$
2	10	incentive	8	527.028	1	4	4	liquidfeedback	switch	letter	congruent	letter_first	consonant	odd	X	9	4	$$$$
2	10	incentive	9	474.456	0	4	3	no liquid	switch	digit	incongruent	digit_first	consonant	even	8	X	2	$$
2	10	incentive	10	605.012	1	4	4	liquidfeedback	repeat	digit	congruent	letter_first	consonant	odd	P	7	4	$$$$
2	10	incentive	11	508.1	1	4	4	liquidfeedback	switch	letter	congruent	digit_first	consonant	odd	9	Z	2	$$
2	10	incentive	12	539.102	0	4	3	no liquid	repeat	letter	congruent	letter_first	vowel	even	I	8	1	$
2	10	incentive	13	750.773	1	3	3	no liquid	repeat	letter	incongruent	letter_first	vowel	odd	U	5	2	$$
2	10	incentive	14	701.021	1	3	3	liquidfeedback	switch	digit	congruent	digit_first	vowel	even	8	U	2	$$
2	10	incentive	15	898.248	0	4	3	no liquid	switch	letter	incongruent	digit_first	vowel	odd	7	I	1	$
2	10	incentive	16	479.481	1	3	3	liquidfeedback	repeat	letter	congruent	letter_first	vowel	even	E	8	2	$$
2	10	incentive	17	451.303	1	3	3	liquidfeedback	switch	digit	congruent	digit_first	vowel	even	4	I	4	$$$$
2	10	incentive	18	463.721	0	3	4	no liquid	switch	letter	incongruent	digit_first	consonant	even	4	X	2	$$
2	10	incentive	19	844.401	1	3	3	no liquid	repeat	letter	congruent	letter_first	vowel	even	A	8	2	$$
2	10	incentive	20	660.007	1	3	3	liquidfeedback	repeat	letter	congruent	digit_first	vowel	even	8	I	4	$$$$
2	10	incentive	21	664.179	1	4	4	liquidfeedback	repeat	letter	congruent	letter_first	consonant	odd	L	7	2	$$
2	10	incentive	22	484.007	0	4	3	no liquid	repeat	letter	incongruent	digit_first	vowel	odd	3	U	1	$
2	10	incentive	23	530.777	1	3	3	liquidfeedback	switch	digit	incongruent	digit_first	consonant	even	8	X	1	$
2	10	incentive	24	546.397	1	4	4	liquidfeedback	repeat	digit	congruent	digit_first	consonant	odd	5	X	1	$
2	10	incentive	25	934.852	0	3	4	no liquid	switch	letter	congruent	digit_first	consonant	odd	3	Z	1	$
2	10	incentive	26	487.719	1	4	4	liquidfeedback	switch	digit	incongruent	letter_first	vowel	odd	U	5	1	$
2	10	incentive	27	722.728	1	3	3	liquidfeedback	repeat	digit	incongruent	digit_first	consonant	even	6	X	1	$
2	10	incentive	28	580.297	1	3	3	liquidfeedback	switch	letter	congruent	digit_first	vowel	even	8	A	2	$$
2	10	incentive	29	629.665	1	4	4	liquidfeedback	repeat	letter	congruent	digit_first	consonant	odd	5	L	2	$$
2	10	incentive	30	762.244	0	3	4	no liquid	switch	digit	incongruent	digit_first	vowel	odd	3	U	2	$$
2	10	incentive	31	438.49	1	4	4	liquidfeedback	switch	letter	congruent	letter_first	consonant	odd	X	9	4	$$$$
2	10	incentive	32	415.955	1	4	4	liquidfeedback	repeat	letter	incongruent	digit_first	consonant	even	8	P	1	$
2	10	incentive	33	469.628	1	4	4	liquidfeedback	switch	digit	incongruent	letter_first	vowel	odd	I	5	4	$$$$
2	10	incentive	34	564.836	1	3	3	liquidfeedback	repeat	digit	congruent	digit_first	vowel	even	8	E	2	$$
2	10	incentive	35	370.513	1	4	4	liquidfeedback	switch	letter	congruent	digit_first	consonant	odd	7	Z	4	$$$$
2	10	incentive	36	538.716	1	4	4	liquidfeedback	repeat	letter	incongruent	digit_first	consonant	even	2	X	1	$
2	10	incentive	37	635.939	1	4	4	liquidfeedback	switch	digit	congruent	letter_first	consonant	odd	X	5	1	$
2	10	incentive	38	655.315	1	3	3	liquidfeedback	switch	letter	incongruent	letter_first	vowel	odd	I	7	4	$$$$
2	10	incentive	39	522.88	0	4	3	no liquid	switch	digit	incongruent	letter_first	consonant	even	Z	8	2	$$
2	10	incentive	40	718.883	1	4	4	liquidfeedback	repeat	digit	incongruent	letter_first	vowel	odd	E	9	2	$$
2	10	incentive	41	516.173	1	4	4	liquidfeedback	repeat	digit	incongruent	letter_first	vowel	odd	A	3	4	$$$$
2	10	incentive	42	425.547	0	4	3	no liquid	switch	letter	congruent	digit_first	vowel	even	6	U	4	$$$$
2	10	incentive	43	353.697	1	4	4	liquidfeedback	repeat	letter	incongruent	letter_first	consonant	even	L	8	4	$$$$
2	10	incentive	44	762.237	0	4	3	no liquid	repeat	letter	incongruent	digit_first	vowel	odd	9	U	4	$$$$
2	10	incentive	45	620.706	1	3	3	liquidfeedback	switch	digit	congruent	letter_first	vowel	even	I	6	2	$$
2	10	incentive	46	629.11	1	3	3	liquidfeedback	repeat	digit	congruent	letter_first	vowel	even	E	8	4	$$$$
2	10	incentive	47	579.965	0	3	4	no liquid	switch	letter	incongruent	letter_first	consonant	even	L	8	1	$
2	10	incentive	48	334.072	1	4	4	liquidfeedback	repeat	letter	incongruent	digit_first	consonant	even	4	P	4	$$$$
2	11	incentive	1	566.462	1	4	4	liquidfeedback	switch	digit	incongruent	letter_first	vowel	odd	I	3	4	$$$$
2	11	incentive	2	651.966	1	4	4	liquidfeedback	repeat	digit	incongruent	letter_first	vowel	odd	I	7	4	$$$$
2	11	incentive	3	520.033	0	3	4	no liquid	switch	letter	congruent	letter_first	consonant	odd	P	7	2	$$
2	11	incentive	4	835.663	1	3	3	no liquid	switch	digit	incongruent	letter_first	consonant	even	P	6	1	$
2	11	incentive	5	575.696	1	4	4	liquidfeedback	switch	letter	incongruent	letter_first	consonant	even	X	6	1	$
2	11	incentive	6	754.981	0	3	4	no liquid	switch	digit	incongruent	letter_first	vowel	odd	A	3	1	$
2	11	incentive	7	502.746	1	4	4	liquidfeedback	switch	letter	incongruent	digit_first	consonant	even	6	P	1	$
2	11	incentive	8	512.202	1	3	3	liquidfeedback	repeat	letter	congruent	letter_first	vowel	even	A	2	4	$$$$
2	11	incentive	9	466.768	1	3	3	liquidfeedback	repeat	letter	congruent	letter_first	vowel	even	A	4	2	$$
2	11	incentive	10	393.905	0	4	3	no liquid	repeat	letter	congruent	letter_first	vowel	even	U	4	2	$$
2	11	incentive	11	637.376	1	4	4	liquidfeedback	switch	digit	incongruent	digit_first	vowel	odd	5	I	2	$$
2	11	incentive	12	466.257	1	4	4	liquidfeedback	repeat	digit	congruent	digit_first	consonant	odd	9	Z	1	$
2	11	incentive	13	521.742	0	4	3	no liquid	switch	letter	incongruent	digit_first	vowel	odd	7	E	2	$$
2	11	incentive	14	523.466	0	3	4	no liquid	switch	digit	incongruent	digit_first	vowel	odd	5	A	4	$$$$
2	11	incentive	15	435.531	1	4	4	liquidfeedback	switch	letter	congruent	letter_first	consonant	odd	Z	7	2	$$
2	11	incentive	16	625.473	0	4	3	no liquid	switch	digit	incongruent	letter_first	consonant	even	L	2	1	$
2	11	incentive	17	601.066	1	3	3	liquidfeedback	switch	letter	congruent	digit_first	vowel	even	6	E	2	$$
2	11	incentive	18	406.765	0	4	3	no liquid	switch	digit	incongruent	digit_first	consonant	even	2	L	2	$$
2	11	incentive	19	522.592	1	3	3	liquidfeedback	switch	letter	incongruent	letter_first	vowel	odd	U	3	4	$$$$
2	11	incentive	20	629.6	1	3	3	liquidfeedback	repeat	letter	incongruent	letter_first	vowel	odd	A	3	1	$
2	11	incentive	21	497.444	1	4	4	liquidfeedback	switch	digit	incongruent	letter_first	vowel	odd	A	9	2	$$
2	11	incentive	22	619.354	1	3	3	liquidfeedback	switch	letter	congruent	digit_first	vowel	even	2	U	2	$$
2	11	incentive	23	495.648	1	4	4	liquidfeedback	repeat	letter	congruent	digit_first	consonant	odd	7	X	2	$$
2	11	incentive	24	583.707	1	4	4	liquidfeedback	repeat	letter	congruent	digit_first	consonant	odd	5	Z	4	$$$$
2	11	incentive	25	500.405	0	4	3	no liquid	repeat	letter	incongruent	digit_first	vowel	odd	5	E	4	$$$$
2	11	incentive	26	566.38	1	4	4	liquidfeedback	repeat	letter	incongruent	digit_first	consonant	even	6	Z	4	$$$$
2	11	incentive	27	601.176	1	3	3	liquidfeedback	switch	digit	congruent	digit_first	vowel	even	2	E	4	$$$$
2	11	incentive	28	680.887	1	3	3	liquidfeedback	switch	letter	congruent	letter_first	vowel	even	E	6	4	$$$$
2	11	incentive	29	435.532	1	3	3	liquidfeedback	repeat	letter	congruent	letter_first	vowel	even	E	4	1	$
2	11	incentive	30	606.563	1	3	3	liquidfeedback	repeat	letter	incongruent	digit_first	vowel	odd	5	A	1	$
2	11	incentive	31	656.1	1	4	4	liquidfeedback	repeat	letter	incongruent	digit_first	consonant	even	8	P	1	$
2	11	incentive	32	683.945	1	3	3	liquidfeedback	repeat	letter	incongruent	letter_first	vowel	odd	I	3	2	$$
2	11	incentive	33	626.054	0	4	3	no liquid	switch	digit	incongruent	digit_first	consonant	even	6	Z	2	$$
2	11	incentive	34	477.577	1	4	4	liquidfeedback	switch	letter	congruent	digit_first	consonant	odd	7	P	4	$$$$
2	11	incentive	35	616.659	1	4	4	liquidfeedback	repeat	letter	congruent	letter_first	consonant	odd	L	7	4	$$$$
2	11	incentive	36	725.817	0	4	3	no liquid	repeat	letter	incongruent	digit_first	vowel	odd	3	I	4	$$$$
2	11	incentive	37	701.458	0	3	4	no liquid	switch	digit	incongruent	digit_first	vowel	odd	7	E	1	$
2	11	incentive	38	582.922	1	4	4	liquidfeedback	repeat	digit	incongruent	digit_first	vowel	odd	9	E	2	$$
2	11	incentive	39	802.415	1	4	4	no liquid	switch	letter	congruent	digit_first	consonant	odd	5	P	2	$$
2	11	incentive	40	625.909	1	4	4	liquidfeedback	repeat	letter	congruent	letter_first	consonant	odd	P	7	1	$
2	11	incentive	41	694.446	1	4	4	liquidfeedback	repeat	letter	congruent	letter_first	consonant	odd	L	7	4	$$$$
2	11	incentive	42	563.848	1	4	4	liquidfeedback	repeat	letter	congruent	digit_first	consonant	odd	3	L	1	$
2	11	incentive	43	448.101	1	4	4	liquidfeedback	repeat	letter	congruent	digit_first	consonant	odd	9	Z	1	$
2	11	incentive	44	593.851	1	3	3	liquidfeedback	repeat	letter	congruent	letter_first	vowel	even	E	8	1	$
2	11	incentive	45	590.164	0	3	4	no liquid	repeat	letter	incongruent	letter_first	consonant	even	L	6	4	$$$$
2	11	incentive	46	666.709	1	4	4	liquidfeedback	repeat	letter	congruent	digit_first	consonant	odd	9	L	1	$
2	11	incentive	47	527.897	0	3	4	no liquid	switch	digit	congruent	letter_first	consonant	odd	Z	5	4	$$$$
2	11	incentive	48	489.193	1	4	4	liquidfeedback	switch	letter	congruent	letter_first	consonant	odd	P	9	2	$$
2	12	incentive	1	616.882	1	4	4	liquidfeedback	repeat	letter	congruent	letter_first	consonant	odd	Z	7	4	$$$$
2	12	incentive	2	870.518	0	4	3	no liquid	switch	digit	congruent	digit_first	vowel	even	2	U	4	$$$$
2	12	incentive	3	665.987	1	3	3	liquidfeedback	repeat	digit	congruent	digit_first	vowel	even	2	A	2	$$
2	12	incentive	4	782.998	1	3	3	no liquid	repeat	digit	incongruent	digit_first	consonant	even	2	P	1	$
2	12	incentive	5	633.085	1	4	4	liquidfeedback	repeat	digit	incongruent	digit_first	vowel	odd	5	A	1	$
2	12	incentive	6	673.855	0	3	4	no liquid	switch	letter	incongruent	letter_first	consonant	even	L	8	2	$$
2	12	incentive	7	506.684	1	4	4	liquidfeedback	repeat	letter	congruent	letter_first	consonant	odd	Z	3	2	$$
2	12	incentive	8	712.558	1	3	3	liquidfeedback	switch	digit	congruent	digit_first	vowel	even	6	A	4	$$$$
2	12	incentive	9	741.528	1	3	3	liquidfeedback	switch	letter	incongruent	digit_first	vowel	odd	3	E	1	$
2	12	incentive	10	749.928	0	4	3	no liquid	switch	digit	incongruent	letter_first	consonant	even	Z	8	4	$$$$
2	12	incentive	11	811.703	0	4	3	no liquid	repeat	digit	incongruent	letter_first	consonant	even	X	4	1	$
2	12	incentive	12	359.823	1	4	4	liquidfeedback	switch	letter	congruent	digit_first	consonant	odd	3	L	1	$
2	12	incentive	13	711.85	1	4	4	liquidfeedback	repeat	letter	incongruent	digit_first	consonant	even	8	X	2	$$
2	12	incentive	14	709.763	1	4	4	liquidfeedback	switch	digit	incongruent	letter_first	vowel	odd	E	9	4	$$$$
2	12	incentive	15	483.715	1	3	3	liquidfeedback	switch	letter	congruent	letter_first	vowel	even	A	2	4	$$$$
2	12	incentive	16	608.228	1	3	3	liquidfeedback	repeat	letter	congruent	digit_first	vowel	even	2	U	2	$$
2	12	incentive	17	649.232	1	4	4	liquidfeedback	repeat	letter	congruent	letter_first	consonant	odd	Z	7	1	$
2	12	incentive	18	553.477	0	3	4	no liquid	repeat	letter	congruent	digit_first	consonant	odd	7	Z	4	$$$$
2	12	incentive	19	457.299	1	4	4	liquidfeedback	switch	digit	congruent	digit_first	consonant	odd	7	P	2	$$
2	12	incentive	20	580.76	1	4	4	liquidfeedback	switch	letter	congruent	letter_first	consonant	odd	Z	5	2	$$
2	12	incentive	21	468.832	1	3	3	liquidfeedback	repeat	letter	congruent	digit_first	vowel	even	8	E	1	$
2	12	incentive	22	526.819	1	4	4	liquidfeedback	repeat	letter	congruent	letter_first	consonant	odd	Z	3	1	$
2	12	incentive	23	529.172	1	4	4	liquidfeedback	switch	digit	congruent	letter_first	consonant	odd	Z	9	1	$
2	12	incentive	24	687.523	1	4	4	liquidfeedback	switch	letter	incongruent	digit_first	consonant	even	2	P	2	$$
2	12	incentive	25	723.504	1	3	3	liquidfeedback	switch	digit	congruent	digit_first	vowel	even	2	U	4	$$$$
2	12	incentive	26	507.079	1	3	3	liquidfeedback	switch	letter	congruent	digit_first	vowel	even	2	A	4	$$$$
2	12	incentive	27	587.658	1	3	3	liquidfeedback	switch	digit	congruent	digit_first	vowel	even	2	I	1	$
2	12	incentive	28	618.459	1	3	3	liquidfeedback	repeat	digit	congruent	letter_first	vowel	even	I	6	1	$
2	12	incentive	29	480.604	0	3	4	no liquid	switch	letter	incongruent	letter_first	consonant	even	L	6	4	$$$$
2	12	incentive	30	506.277	1	3	3	liquidfeedback	repeat	letter	congruent	digit_first	vowel	even	8	I	2	$$
2	12	incentive	31	649.831	1	4	4	liquidfeedback	switch	digit	congruent	digit_first	consonant	odd	9	X	4	$$$$
2	12	incentive	32	390.297	1	4	4	liquidfeedback	repeat	digit	incongruent	letter_first	vowel	odd	I	7	4	$$$$
2	12	incentive	33	662.062	1	4	4	liquidfeedback	repeat	digit	congruent	letter_first	consonant	odd	Z	3	2	$$
2	12	incentive	34	450.46	0	4	3	no liquid	switch	letter	incongruent	letter_first	vowel	odd	I	7	4	$$$$
2	12	incentive	35	628.673	1	4	4	liquidfeedback	switch	digit	incongruent	letter_first	vowel	odd	U	7	1	$
2	12	incentive	36	791.7	0	4	3	no liquid	repeat	digit	incongruent	digit_first	consonant	even	4	L	1	$
2	12	incentive	37	565.054	1	4	4	liquidfeedback	switch	letter	incongruent	digit_first	consonant	even	6	P	2	$$
2	12	incentive	38	558.281	1	4	4	liquidfeedback	repeat	letter	incongruent	digit_first	consonant	even	4	Z	1	$
2	12	incentive	39	662.712	1	4	4	liquidfeedback	switch	digit	incongruent	digit_first	vowel	odd	5	E	1	$
2	12	incentive	40	984.653	1	3	3	no liquid	repeat	digit	incongruent	digit_first	consonant	even	4	L	4	$$$$
2	12	incentive	41	760.267	1	3	3	no liquid	switch	letter	congruent	letter_first	vowel	even	A	8	2	$$
2	12	incentive	42	773.855	1	4	4	no liquid	repeat	letter	incongruent	letter_first	consonant	even	L	2	1	$
2	12	incentive	43	774.197	1	3	3	no liquid	switch	digit	congruent	digit_first	vowel	even	8	U	2	$$
2	12	incentive	44	522.938	1	4	4	liquidfeedback	repeat	digit	incongruent	letter_first	vowel	odd	E	5	2	$$
2	12	incentive	45	725.459	1	4	4	liquidfeedback	repeat	digit	incongruent	letter_first	vowel	odd	E	5	4	$$$$
2	12	incentive	46	827.373	0	4	3	no liquid	repeat	digit	incongruent	letter_first	consonant	even	Z	4	4	$$$$
2	12	incentive	47	572.178	0	3	4	no liquid	repeat	digit	incongruent	letter_first	vowel	odd	E	3	2	$$
2	12	incentive	48	574.645	1	3	3	liquidfeedback	switch	letter	incongruent	letter_first	vowel	odd	A	5	2	$$
2	13	incentive	1	840.382	0	4	3	no liquid	repeat	digit	incongruent	letter_first	consonant	even	X	4	4	$$$$
2	13	incentive	2	563.489	1	3	3	liquidfeedback	switch	letter	incongruent	letter_first	vowel	odd	A	5	2	$$
2	13	incentive	3	570.573	1	4	4	liquidfeedback	repeat	letter	congruent	letter_first	consonant	odd	X	9	4	$$$$
2	13	incentive	4	486.456	1	4	4	liquidfeedback	repeat	letter	incongruent	digit_first	consonant	even	4	Z	1	$
2	13	incentive	5	485.157	1	3	3	liquidfeedback	repeat	letter	congruent	letter_first	vowel	even	U	6	1	$
2	13	incentive	6	422.965	1	4	4	liquidfeedback	switch	digit	congruent	digit_first	consonant	odd	3	Z	4	$$$$
2	13	incentive	7	647.158	1	4	4	liquidfeedback	switch	letter	incongruent	letter_first	consonant	even	X	6	2	$$
2	13	incentive	8	649.318	1	3	3	liquidfeedback	switch	digit	incongruent	letter_first	consonant	even	L	2	2	$$
2	13	incentive	9	588.567	1	4	4	liquidfeedback	switch	letter	congruent	letter_first	consonant	odd	Z	3	4	$$$$
2	13	incentive	10	475.373	0	3	4	no liquid	repeat	letter	congruent	digit_first	consonant	odd	5	P	2	$$
2	13	incentive	11	417.21	1	4	4	liquidfeedback	switch	digit	incongruent	digit_first	vowel	odd	3	E	4	$$$$
2	13	incentive	12	444.322	1	3	3	liquidfeedback	switch	letter	incongruent	digit_first	vowel	odd	3	U	4	$$$$
2	13	incentive	13	388.709	0	3	4	no liquid	repeat	letter	congruent	digit_first	consonant	odd	9	X	4	$$$$
2	13	incentive	14	534.766	0	4	3	no liquid	repeat	letter	congruent	digit_first	vowel	even	8	U	1	$
2	13	incentive	15	559.268	0	3	4	no liquid	repeat	letter	incongruent	letter_first	consonant	even	P	8	4	$$$$
2	13	incentive	16	571.893	1	4	4	liquidfeedback	switch	digit	incongruent	letter_first	vowel	odd	U	3	2	$$
2	13	incentive	17	431.595	0	4	3	no liquid	switch	letter	congruent	letter_first	vowel	even	E	8	1	$
2	13	incentive	18	433.618	0	3	4	no liquid	repeat	letter	congruent	letter_first	consonant	odd	P	5	4	$$$$
2	13	incentive	19	529.981	0	4	3	no liquid	repeat	letter	congruent	digit_first	vowel	even	6	I	1	$
2	13	incentive	20	457.557	0	3	4	no liquid	repeat	letter	incongruent	letter_first	consonant	even	X	4	1	$
2	13	incentive	21	498.865	0	4	3	no liquid	repeat	letter	incongruent	letter_first	vowel	odd	E	5	1	$
2	13	incentive	22	835.861	1	3	3	no liquid	switch	digit	congruent	letter_first	vowel	even	I	4	4	$$$$
2	13	incentive	23	675.833	1	4	4	liquidfeedback	repeat	digit	incongruent	digit_first	vowel	odd	3	I	1	$
2	13	incentive	24	603.515	1	4	4	liquidfeedback	switch	letter	congruent	letter_first	consonant	odd	Z	9	2	$$
2	13	incentive	25	778.402	0	3	4	no liquid	switch	digit	congruent	letter_first	consonant	odd	L	5	2	$$
2	13	incentive	26	536.039	0	4	3	no liquid	switch	letter	incongruent	digit_first	vowel	odd	3	A	1	$
2	13	incentive	27	563.041	1	4	4	liquidfeedback	repeat	letter	congruent	digit_first	consonant	odd	9	P	4	$$$$
2	13	incentive	28	794.012	1	4	4	no liquid	switch	digit	incongruent	digit_first	vowel	odd	7	I	4	$$$$
2	13	incentive	29	631.556	1	3	3	liquidfeedback	repeat	digit	incongruent	digit_first	consonant	even	8	L	4	$$$$
2	13	incentive	30	602.211	0	4	3	no liquid	repeat	digit	incongruent	letter_first	consonant	even	X	4	4	$$$$
2	13	incentive	31	712.96	1	3	3	liquidfeedback	repeat	digit	congruent	digit_first	vowel	even	2	I	1	$
2	13	incentive	32	525.364	1	4	4	liquidfeedback	repeat	digit	congruent	digit_first	consonant	odd	3	P	1	$
2	13	incentive	33	723.822	1	3	3	liquidfeedback	switch	letter	congruent	digit_first	vowel	even	8	U	1	$
2	13	incentive	34	498.934	1	3	3	liquidfeedback	repeat	letter	congruent	digit_first	vowel	even	8	U	1	$
2	13	incentive	35	597.369	1	4	4	liquidfeedback	switch	digit	congruent	digit_first	consonant	odd	3	L	1	$
2	13	incentive	36	556.334	0	4	3	no liquid	switch	letter	incongruent	letter_first	vowel	odd	E	3	2	$$
2	13	incentive	37	561.166	1	3	3	liquidfeedback	repeat	letter	congruent	digit_first	vowel	even	6	U	2	$$
2	13	incentive	38	503.666	1	4	4	liquidfeedback	switch	digit	incongruent	digit_first	vowel	odd	9	I	1	$
2	13	incentive	39	511.873	0	4	3	no liquid	switch	letter	congruent	letter_first	vowel	even	E	8	2	$$
2	13	incentive	40	551.957	1	4	4	liquidfeedback	repeat	letter	congruent	digit_first	consonant	odd	9	L	2	$$
2	13	incentive	41	639.424	0	3	4	no liquid	switch	digit	incongruent	digit_first	vowel	odd	9	A	2	$$
2	13	incentive	42	850.712	1	3	3	no liquid	switch	letter	incongruent	letter_first	vowel	odd	U	3	2	$$
2	13	incentive	43	697.209	0	4	3	no liquid	switch	digit	incongruent	letter_first	consonant	even	X	6	2	$$
2	13	incentive	44	929.682	1	3	3	no liquid	repeat	digit	incongruent	digit_first	consonant	even	4	Z	2	$$
2	13	incentive	45	666.268	1	3	3	liquidfeedback	repeat	digit	congruent	letter_first	vowel	even	E	6	1	$
2	13	incentive	46	579.548	1	3	3	liquidfeedback	switch	letter	incongruent	letter_first	vowel	odd	A	5	2	$$
2	13	incentive	47	635.457	0	3	4	no liquid	repeat	letter	incongruent	digit_first	consonant	even	2	L	4	$$$$
2	13	incentive	48	429.713	1	4	4	liquidfeedback	switch	digit	congruent	letter_first	consonant	odd	L	5	4	$$$$
2	14	incentive	1	861.105	0	4	3	no liquid	switch	letter	incongruent	digit_first	vowel	odd	7	U	2	$$
2	14	incentive	2	1194.589	1	3	3	no liquid	switch	digit	congruent	letter_first	vowel	even	I	2	1	$
2	14	incentive	3	625.531	0	3	4	no liquid	switch	letter	incongruent	letter_first	consonant	even	X	8	2	$$
2	14	incentive	4	462.573	1	4	4	liquidfeedback	switch	digit	incongruent	letter_first	vowel	odd	U	5	2	$$
2	14	incentive	5	892.155	1	4	4	no liquid	repeat	digit	congruent	digit_first	consonant	odd	7	Z	2	$$
2	14	incentive	6	638.823	1	3	3	liquidfeedback	switch	letter	congruent	digit_first	vowel	even	8	U	2	$$
2	14	incentive	7	598.11	1	4	4	liquidfeedback	repeat	letter	incongruent	letter_first	consonant	even	P	2	4	$$$$
2	14	incentive	8	577.331	1	4	4	liquidfeedback	repeat	letter	congruent	letter_first	consonant	odd	Z	9	4	$$$$
2	14	incentive	9	596.333	1	3	3	liquidfeedback	repeat	letter	congruent	digit_first	vowel	even	4	I	2	$$
2	14	incentive	10	419.237	0	4	3	no liquid	switch	digit	congruent	letter_first	vowel	even	I	4	2	$$
2	14	incentive	11	594.106	1	3	3	liquidfeedback	repeat	digit	congruent	digit_first	vowel	even	8	U	4	$$$$
2	14	incentive	12	726.337	1	4	4	liquidfeedback	switch	letter	congruent	digit_first	consonant	odd	3	L	4	$$$$
2	14	incentive	13	569.352	0	3	4	no liquid	repeat	letter	incongruent	letter_first	consonant	even	P	4	1	$
2	14	incentive	14	541.322	1	3	3	liquidfeedback	switch	digit	incongruent	letter_first	consonant	even	P	2	2	$$
2	14	incentive	15	720.816	1	4	4	liquidfeedback	repeat	digit	incongruent	letter_first	vowel	odd	A	5	1	$
2	14	incentive	16	721.937	1	3	3	liquidfeedback	repeat	digit	congruent	letter_first	vowel	even	U	6	4	$$$$
2	14	incentive	17	804.708	0	3	4	no liquid	repeat	digit	incongruent	digit_first	vowel	odd	7	E	4	$$$$
2	14	incentive	18	743.067	1	3	3	liquidfeedback	switch	letter	incongruent	letter_first	vowel	odd	U	9	1	$
2	14	incentive	19	732.828	1	4	4	liquidfeedback	switch	digit	incongruent	digit_first	vowel	odd	3	I	4	$$$$
2	14	incentive	20	638.227	1	3	3	liquidfeedback	repeat	digit	congruent	letter_first	vowel	even	U	6	4	$$$$
2	14	incentive	21	674.107	0	3	4	no liquid	switch	letter	incongruent	digit_first	consonant	even	8	P	1	$
2	14	incentive	22	640.63	1	3	3	liquidfeedback	switch	digit	incongruent	letter_first	consonant	even	P	8	2	$$
2	14	incentive	23	666.791	0	3	4	no liquid	repeat	digit	congruent	digit_first	consonant	odd	5	L	2	$$
2	14	incentive	24	461.06	1	4	4	liquidfeedback	repeat	digit	incongruent	digit_first	vowel	odd	7	I	1	$
2	14	incentive	25	646.436	1	4	4	liquidfeedback	switch	letter	congruent	letter_first	consonant	odd	P	5	4	$$$$
2	14	incentive	26	659.585	0	3	4	no liquid	repeat	letter	incongruent	digit_first	consonant	even	6	L	2	$$
2	14	incentive	27	701.881	1	4	4	liquidfeedback	repeat	letter	incongruent	letter_first	consonant	even	P	6	4	$$$$
2	14	incentive	28	741.59	1	3	3	liquidfeedback	repeat	letter	incongruent	letter_first	vowel	odd	I	3	1	$
2	14	incentive	29	560.488	1	4	4	liquidfeedback	repeat	letter	incongruent	digit_first	consonant	even	2	X	4	$$$$
2	14	incentive	30	787.413	1	3	3	no liquid	switch	digit	incongruent	digit_first	consonant	even	6	P	1	$
2	14	incentive	31	511.016	1	4	4	liquidfeedback	repeat	digit	congruent	letter_first	consonant	odd	L	3	2	$$
2	14	incentive	32	509.298	1	3	3	liquidfeedback	switch	letter	congruent	digit_first	vowel	even	4	A	1	$
2	14	incentive	33	580.927	1	4	4	liquidfeedback	repeat	letter	congruent	letter_first	consonant	odd	Z	9	4	$$$$
2	14	incentive	34	585.666	1	3	3	liquidfeedback	switch	digit	incongruent	letter_first	consonant	even	L	8	1	$
2	14	incentive	35	548.994	0	4	3	no liquid	repeat	digit	incongruent	digit_first	consonant	even	4	P	2	$$
2	14	incentive	36	717.484	1	3	3	liquidfeedback	switch	letter	incongruent	digit_first	vowel	odd	9	A	1	$
2	14	incentive	37	520.866	1	3	3	liquidfeedback	switch	digit	congruent	digit_first	vowel	even	2	A	1	$
2	14	incentive	38	490.606	1	3	3	liquidfeedback	repeat	digit	congruent	digit_first	vowel	even	4	U	1	$
2	14	incentive	39	580.684	0	4	3	no liquid	switch	letter	incongruent	digit_first	vowel	odd	9	I	1	$
2	14	incentive	40	501.297	1	3	3	liquidfeedback	switch	digit	congruent	digit_first	vowel	even	8	E	1	$
2	14	incentive	41	458.855	1	4	4	liquidfeedback	repeat	digit	congruent	digit_first	consonant	odd	9	X	4	$$$$
2	14	incentive	42	551.893	1	4	4	liquidfeedback	repeat	digit	congruent	digit_first	consonant	odd	5	Z	4	$$$$
2	14	incentive	43	471.763	1	4	4	liquidfeedback	repeat	digit	congruent	digit_first	consonant	odd	7	X	2	$$
2	14	incentive	44	456.158	1	4	4	liquidfeedback	repeat	digit	incongruent	letter_first	vowel	odd	I	7	1	$
2	14	incentive	45	508.227	1	3	3	liquidfeedback	switch	letter	congruent	letter_first	vowel	even	E	8	2	$$
2	14	incentive	46	428.651	0	4	3	no liquid	switch	digit	incongruent	letter_first	consonant	even	P	4	4	$$$$
2	14	incentive	47	584.027	1	3	3	liquidfeedback	switch	letter	congruent	letter_first	vowel	even	A	6	4	$$$$
2	14	incentive	48	591.268	1	4	4	liquidfeedback	switch	digit	congruent	letter_first	consonant	odd	P	9	2	$$
3	8	baseline	1	864.285	1	3	3	none	switch	letter	congruent	digit_first	consonant	odd	7	Z	2	$$
3	8	baseline	2	815.713	0	3	4	none	switch	digit	congruent	letter_first	vowel	even	A	4	1	$
3	8	baseline	3	864.756	1	4	4	none	repeat	digit	incongruent	digit_first	consonant	even	4	X	4	$$$$
3	8	baseline	4	814.387	0	4	3	none	switch	letter	incongruent	digit_first	consonant	even	4	L	2	$$
3	8	baseline	5	650.965	1	3	3	none	switch	digit	congruent	digit_first	consonant	odd	7	L	4	$$$$
3	8	baseline	6	471.716	1	4	4	none	switch	letter	congruent	letter_first	vowel	even	A	2	1	$
3	8	baseline	7	1072.383	1	4	4	none	switch	digit	congruent	letter_first	vowel	even	E	4	2	$$
3	8	baseline	8	1261.719	1	4	4	none	switch	letter	incongruent	digit_first	vowel	odd	3	A	1	$
3	8	baseline	9	739.953	0	4	3	none	repeat	letter	incongruent	letter_first	consonant	even	L	8	2	$$
3	8	baseline	10	632.449	1	4	4	none	repeat	letter	congruent	letter_first	vowel	even	E	6	4	$$$$
3	8	baseline	11	921.448	0	4	3	none	switch	digit	congruent	letter_first	consonant	odd	X	5	4	$$$$
3	8	baseline	12	763.84	1	4	4	none	switch	letter	congruent	letter_first	vowel	even	E	4	4	$$$$
3	8	baseline	13	745.518	1	3	3	none	repeat	letter	incongruent	letter_first	consonant	even	L	6	2	$$
3	8	baseline	14	687.443	1	3	3	none	repeat	letter	incongruent	letter_first	consonant	even	L	4	4	$$$$
3	8	baseline	15	1030.519	0	4	3	none	repeat	letter	incongruent	digit_first	consonant	even	4	P	4	$$$$
3	8	baseline	16	740.99	1	3	3	none	repeat	letter	incongruent	digit_first	consonant	even	4	Z	1	$
3	8	baseline	17	614.856	1	4	4	none	repeat	letter	incongruent	letter_first	vowel	odd	E	7	2	$$
3	8	baseline	18	945.813	1	3	3	none	repeat	letter	incongruent	digit_first	consonant	even	6	P	1	$
3	8	baseline	19	806.68	1	4	4	none	repeat	letter	incongruent	digit_first	vowel	odd	9	A	2	$$
3	8	baseline	20	495.366	1	4	4	none	repeat	letter	incongruent	digit_first	vowel	odd	5	E	1	$
3	8	baseline	21	648.665	1	4	4	none	repeat	letter	congruent	letter_first	vowel	even	E	8	1	$
3	8	baseline	22	641.108	1	3	3	none	repeat	letter	congruent	letter_first	consonant	odd	L	9	4	$$$$
3	8	baseline	23	999.539	1	3	3	none	switch	digit	incongruent	letter_first	vowel	odd	I	7	4	$$$$
3	8	baseline	24	1170.531	0	3	4	none	repeat	digit	congruent	digit_first	vowel	even	6	E	2	$$
3	8	baseline	25	749.241	1	4	4	none	repeat	digit	congruent	letter_first	vowel	even	E	6	4	$$$$
3	8	baseline	26	676.508	1	4	4	none	switch	letter	incongruent	digit_first	vowel	odd	3	E	4	$$$$
3	8	baseline	27	894.072	1	4	4	none	switch	digit	incongruent	digit_first	consonant	even	6	L	2	$$
3	8	baseline	28	827.668	1	4	4	none	switch	letter	incongruent	digit_first	vowel	odd	5	E	1	$
3	8	baseline	29	943.454	1	3	3	none	switch	digit	congruent	digit_first	consonant	odd	9	L	4	$$$$
3	8	baseline	30	807.917	1	4	4	none	repeat	digit	incongruent	digit_first	consonant	even	8	P	1	$
3	8	baseline	31	823.738	1	4	4	none	switch	letter	congruent	digit_first	vowel	even	6	E	1	$
3	8	baseline	32	854.176	1	4	4	none	switch	digit	incongruent	letter_first	consonant	even	X	6	4	$$$$
3	8	baseline	33	729.103	0	4	3	none	switch	letter	incongruent	letter_first	consonant	even	L	6	4	$$$$
3	8	baseline	34	788.957	1	4	4	none	switch	digit	congruent	digit_first	vowel	even	6	I	1	$
3	8	baseline	35	533.204	1	4	4	none	repeat	digit	incongruent	digit_first	consonant	even	6	L	2	$$
3	8	baseline	36	734.307	1	4	4	none	repeat	digit	congruent	digit_first	vowel	even	4	I	2	$$
3	8	baseline	37	1486.702	1	4	4	none	repeat	digit	congruent	letter_first	vowel	even	U	8	2	$$
3	8	baseline	38	819.178	1	3	3	none	repeat	digit	congruent	letter_first	consonant	odd	X	7	2	$$
3	8	baseline	39	714.741	1	4	4	none	repeat	digit	congruent	digit_first	vowel	even	4	I	1	$
3	8	baseline	40	1270.869	1	3	3	none	switch	letter	congruent	letter_first	consonant	odd	L	9	2	$$
3	8	baseline	41	667.864	0	4	3	none	switch	digit	congruent	letter_first	consonant	odd	L	5	2	$$
3	8	baseline	42	626.379	1	4	4	none	repeat	digit	congruent	digit_first	vowel	even	6	U	4	$$$$
3	8	baseline	43	960.187	0	3	4	none	switch	letter	incongruent	letter_first	vowel	odd	U	5	4	$$$$
3	8	baseline	44	787.902	0	4	3	none	switch	digit	incongruent	digit_first	vowel	odd	7	E	1	$
3	8	baseline	45	1242.227	1	3	3	none	switch	letter	congruent	letter_first	consonant	odd	L	5	1	$
3	8	baseline	46	831.552	1	4	4	none	repeat	letter	incongruent	letter_first	vowel	odd	A	5	1	$
3	8	baseline	47	754.921	1	3	3	none	repeat	letter	congruent	digit_first	consonant	odd	7	P	2	$$
3	8	baseline	48	711.072	1	4	4	none	switch	digit	incongruent	letter_first	consonant	even	Z	4	1	$
3	9	incentive	1	754.226	1	3	3	too slow	repeat	digit	incongruent	letter_first	vowel	odd	E	3	2	$$
3	9	incentive	2	491.71	1	4	4	liquid feedback	repeat	digit	incongruent	letter_first	consonant	even	L	6	4	$$$$
3	9	incentive	3	623.471	1	4	4	liquid feedback	repeat	digit	congruent	digit_first	vowel	even	2	A	4	$$$$
3	9	incentive	4	488.91	1	3	3	liquid feedback	switch	letter	incongruent	digit_first	consonant	even	8	L	4	$$$$
3	9	incentive	5	584.065	1	4	4	liquid feedback	switch	digit	incongruent	digit_first	consonant	even	6	Z	1	$
3	9	incentive	6	504.564	1	4	4	liquid feedback	switch	letter	incongruent	letter_first	vowel	odd	A	3	4	$$$$
3	9	incentive	7	588.728	1	3	3	liquid feedback	repeat	letter	congruent	letter_first	consonant	odd	Z	3	1	$
3	9	incentive	8	476.979	1	4	4	liquid feedback	repeat	letter	congruent	letter_first	vowel	even	U	2	1	$
3	9	incentive	9	713.676	1	4	4	liquid feedback	repeat	letter	congruent	digit_first	vowel	even	6	I	2	$$
3	9	incentive	10	572.975	1	4	4	liquid feedback	repeat	letter	incongruent	digit_first	vowel	odd	5	A	4	$$$$
3	9	incentive	11	473.183	1	3	3	liquid feedback	repeat	letter	congruent	digit_first	consonant	odd	3	L	4	$$$$
3	9	incentive	12	462.74	1	4	4	liquid feedback	switch	digit	incongruent	digit_first	consonant	even	6	X	2	$$
3	9	incentive	13	474.648	0	3	4	wrong resp	repeat	digit	congruent	digit_first	vowel	even	4	A	4	$$$$
3	9	incentive	14	592.618	1	4	4	liquid feedback	repeat	digit	incongruent	digit_first	consonant	even	8	X	1	$
3	9	incentive	15	422.481	1	4	4	liquid feedback	repeat	digit	congruent	letter_first	vowel	even	E	8	2	$$
3	9	incentive	16	565.584	0	3	4	wrong resp	switch	letter	incongruent	letter_first	vowel	odd	A	7	1	$
3	9	incentive	17	465.177	0	3	4	wrong resp	repeat	letter	congruent	letter_first	vowel	even	E	6	4	$$$$
3	9	incentive	18	436.796	1	4	4	liquid feedback	repeat	letter	congruent	letter_first	vowel	even	I	2	2	$$
3	9	incentive	19	502.756	1	4	4	liquid feedback	repeat	letter	incongruent	digit_first	vowel	odd	3	U	1	$
3	9	incentive	20	477.398	1	4	4	liquid feedback	switch	digit	congruent	digit_first	vowel	even	8	E	2	$$
3	9	incentive	21	739.99	1	3	3	liquid feedback	switch	letter	incongruent	letter_first	consonant	even	X	4	2	$$
3	9	incentive	22	799.776	1	3	3	too slow	repeat	letter	congruent	digit_first	consonant	odd	5	Z	2	$$
3	9	incentive	23	480.059	1	4	4	liquid feedback	repeat	letter	incongruent	digit_first	vowel	odd	9	E	1	$
3	9	incentive	24	834.526	1	4	4	too slow	switch	digit	incongruent	letter_first	consonant	even	P	8	4	$$$$
3	9	incentive	25	459.999	1	3	3	liquid feedback	switch	letter	congruent	letter_first	consonant	odd	X	9	1	$
3	9	incentive	26	740.004	1	3	3	liquid feedback	switch	digit	congruent	letter_first	consonant	odd	Z	9	2	$$
3	9	incentive	27	910.144	1	3	3	too slow	switch	letter	incongruent	letter_first	consonant	even	L	6	4	$$$$
3	9	incentive	28	550.253	1	3	3	liquid feedback	switch	digit	incongruent	digit_first	vowel	odd	3	I	1	$
3	9	incentive	29	643.316	0	4	3	wrong resp	switch	letter	congruent	digit_first	consonant	odd	3	P	1	$
3	9	incentive	30	563.713	1	3	3	liquid feedback	switch	digit	incongruent	digit_first	vowel	odd	7	U	1	$
3	9	incentive	31	717.057	1	3	3	liquid feedback	repeat	digit	congruent	letter_first	consonant	odd	X	5	4	$$$$
3	9	incentive	32	957.048	1	4	4	too slow	switch	letter	congruent	digit_first	vowel	even	8	I	1	$
3	9	incentive	33	545.05	1	4	4	liquid feedback	switch	digit	incongruent	letter_first	consonant	even	P	8	4	$$$$
3	9	incentive	34	700.222	1	4	4	liquid feedback	repeat	digit	congruent	letter_first	vowel	even	E	6	1	$
3	9	incentive	35	670.754	1	3	3	liquid feedback	switch	letter	incongruent	digit_first	consonant	even	4	L	2	$$
3	9	incentive	36	632.192	1	3	3	liquid feedback	repeat	letter	congruent	digit_first	consonant	odd	7	L	1	$
3	9	incentive	37	577.857	1	4	4	liquid feedback	repeat	letter	incongruent	digit_first	vowel	odd	5	A	4	$$$$
3	9	incentive	38	877.285	1	3	3	too slow	repeat	letter	congruent	letter_first	consonant	odd	L	9	1	$
3	9	incentive	39	539.306	1	4	4	liquid feedback	switch	digit	congruent	digit_first	vowel	even	6	U	2	$$
3	9	incentive	40	521.915	1	3	3	liquid feedback	switch	letter	congruent	digit_first	consonant	odd	9	X	2	$$
3	9	incentive	41	555.452	1	3	3	liquid feedback	switch	digit	incongruent	letter_first	vowel	odd	U	3	4	$$$$
3	9	incentive	42	810.628	0	3	4	wrong resp	repeat	digit	incongruent	letter_first	consonant	even	X	4	2	$$
3	9	incentive	43	565.663	0	3	4	wrong resp	switch	letter	congruent	letter_first	vowel	even	E	4	2	$$
3	9	incentive	44	535.625	1	3	3	liquid feedback	switch	digit	incongruent	letter_first	vowel	odd	U	3	1	$
3	9	incentive	45	650.642	1	3	3	liquid feedback	switch	letter	incongruent	digit_first	consonant	even	6	Z	2	$$
3	9	incentive	46	524.885	1	3	3	liquid feedback	switch	digit	congruent	digit_first	consonant	odd	3	P	4	$$$$
3	9	incentive	47	624.762	1	3	3	liquid feedback	repeat	digit	incongruent	letter_first	vowel	odd	E	5	2	$$
3	9	incentive	48	810.869	1	3	3	too slow	repeat	digit	congruent	letter_first	consonant	odd	X	7	4	$$$$
3	10	incentive	1	600.854	1	3	3	liquid feedback	repeat	letter	incongruent	digit_first	consonant	even	6	Z	1	$
3	10	incentive	2	661.25	0	3	4	wrong resp	switch	digit	incongruent	letter_first	consonant	even	P	4	4	$$$$
3	10	incentive	3	707.246	1	4	4	liquid feedback	switch	letter	incongruent	digit_first	vowel	odd	9	I	4	$$$$
3	10	incentive	4	567.37	0	3	4	wrong resp	repeat	letter	incongruent	digit_first	vowel	odd	5	E	4	$$$$
3	10	incentive	5	651.351	1	3	3	liquid feedback	repeat	letter	congruent	letter_first	consonant	odd	Z	5	2	$$
3	10	incentive	6	694.041	1	3	3	liquid feedback	repeat	letter	incongruent	digit_first	consonant	even	6	L	4	$$$$
3	10	incentive	7	613.184	0	3	4	wrong resp	repeat	letter	congruent	letter_first	vowel	even	A	4	2	$$
3	10	incentive	8	554.788	0	3	4	wrong resp	switch	digit	incongruent	digit_first	consonant	even	2	L	1	$
3	10	incentive	9	537.947	1	4	4	liquid feedback	repeat	digit	congruent	letter_first	vowel	even	I	6	1	$
3	10	incentive	10	647.163	1	3	3	liquid feedback	repeat	digit	incongruent	digit_first	vowel	odd	7	U	2	$$
3	10	incentive	11	762.696	1	3	3	too slow	repeat	digit	incongruent	letter_first	vowel	odd	U	5	1	$
3	10	incentive	12	712.167	1	3	3	liquid feedback	switch	letter	congruent	digit_first	consonant	odd	5	Z	2	$$
3	10	incentive	13	507.222	1	4	4	liquid feedback	repeat	letter	incongruent	digit_first	vowel	odd	9	I	2	$$
3	10	incentive	14	629.926	1	4	4	liquid feedback	switch	digit	congruent	digit_first	vowel	even	8	A	4	$$$$
3	10	incentive	15	660.358	1	3	3	liquid feedback	switch	letter	congruent	letter_first	consonant	odd	X	9	2	$$
3	10	incentive	16	707.853	1	3	3	liquid feedback	repeat	letter	incongruent	letter_first	consonant	even	P	6	1	$
3	10	incentive	17	490.306	1	3	3	liquid feedback	switch	digit	congruent	letter_first	consonant	odd	L	3	1	$
3	10	incentive	18	529.508	1	3	3	liquid feedback	switch	letter	congruent	digit_first	consonant	odd	9	L	4	$$$$
3	10	incentive	19	813.518	1	3	3	too slow	switch	digit	congruent	digit_first	consonant	odd	5	Z	1	$
3	10	incentive	20	627.259	0	3	4	wrong resp	switch	letter	congruent	digit_first	vowel	even	8	I	4	$$$$
3	10	incentive	21	563.173	1	3	3	liquid feedback	switch	digit	incongruent	letter_first	vowel	odd	U	5	4	$$$$
3	10	incentive	22	535.354	1	3	3	liquid feedback	switch	letter	incongruent	digit_first	consonant	even	6	Z	1	$
3	10	incentive	23	606.116	0	3	4	wrong resp	repeat	letter	incongruent	digit_first	vowel	odd	5	E	1	$
3	10	incentive	24	467.152	0	3	4	wrong resp	repeat	letter	congruent	letter_first	vowel	even	A	2	2	$$
3	10	incentive	25	520.512	1	3	3	liquid feedback	repeat	letter	congruent	letter_first	consonant	odd	X	7	2	$$
3	10	incentive	26	537.747	1	3	3	liquid feedback	switch	digit	congruent	letter_first	consonant	odd	Z	7	1	$
3	10	incentive	27	530.653	1	3	3	liquid feedback	repeat	digit	congruent	digit_first	consonant	odd	7	P	2	$$
3	10	incentive	28	511.777	1	3	3	liquid feedback	switch	letter	incongruent	letter_first	consonant	even	Z	6	2	$$
3	10	incentive	29	668.348	1	4	4	liquid feedback	switch	digit	congruent	letter_first	vowel	even	A	4	2	$$
3	10	incentive	30	458.859	1	3	3	liquid feedback	repeat	digit	congruent	letter_first	consonant	odd	P	5	2	$$
3	10	incentive	31	472.386	0	3	4	wrong resp	switch	letter	congruent	letter_first	vowel	even	E	2	2	$$
3	10	incentive	32	803.216	0	3	4	wrong resp	switch	digit	congruent	digit_first	vowel	even	4	U	1	$
3	10	incentive	33	0				no response	repeat	digit	congruent	letter_first	consonant	odd	P	3	1	$
3	10	incentive	34	523.111	1	4	4	liquid feedback	repeat	digit	congruent	digit_first	vowel	even	8	A	4	$$$$
3	10	incentive	35	747.196	1	3	3	too slow	switch	letter	congruent	digit_first	consonant	odd	7	L	1	$
3	10	incentive	36	590.345	0	3	4	wrong resp	switch	digit	incongruent	digit_first	consonant	even	6	Z	2	$$
3	10	incentive	37	513.875	0	3	4	wrong resp	switch	letter	incongruent	letter_first	vowel	odd	A	9	2	$$
3	10	incentive	38	588.041	1	4	4	liquid feedback	repeat	letter	incongruent	letter_first	vowel	odd	A	3	4	$$$$
3	10	incentive	39	539.915	1	3	3	liquid feedback	repeat	letter	incongruent	letter_first	consonant	even	L	8	4	$$$$
3	10	incentive	40	451.29	0	3	4	wrong resp	switch	digit	incongruent	digit_first	consonant	even	2	L	4	$$$$
3	10	incentive	41	487.625	1	3	3	liquid feedback	repeat	digit	incongruent	digit_first	vowel	odd	9	A	1	$
3	10	incentive	42	590.235	0	3	4	wrong resp	switch	letter	incongruent	digit_first	vowel	odd	3	A	4	$$$$
3	10	incentive	43	664.084	1	4	4	liquid feedback	switch	digit	congruent	letter_first	vowel	even	E	8	4	$$$$
3	10	incentive	44	438.891	0	3	4	wrong resp	repeat	digit	incongruent	letter_first	consonant	even	P	6	2	$$
3	10	incentive	45	399.642	1	4	4	liquid feedback	repeat	digit	congruent	letter_first	vowel	even	A	8	4	$$$$
3	10	incentive	46	457.086	0	3	4	wrong resp	switch	letter	congruent	letter_first	vowel	even	U	4	4	$$$$
3	10	incentive	47	500.157	0	3	4	wrong resp	repeat	letter	incongruent	digit_first	vowel	odd	9	E	1	$
3	10	incentive	48	666.526	1	3	3	liquid feedback	repeat	letter	incongruent	digit_first	consonant	even	8	L	1	$
3	11	incentive	1	616.407	1	4	4	liquid feedback	repeat	letter	incongruent	letter_first	vowel	odd	A	9	4	$$$$
3	11	incentive	2	509.975	1	4	4	liquid feedback	switch	digit	incongruent	digit_first	consonant	even	8	X	1	$
3	11	incentive	3	432.444	1	4	4	liquid feedback	switch	letter	incongruent	letter_first	vowel	odd	I	7	2	$$
3	11	incentive	4	688.079	0	4	3	wrong resp	switch	digit	congruent	letter_first	consonant	odd	X	7	4	$$$$
3	11	incentive	5	385.168	1	3	3	liquid feedback	switch	letter	congruent	digit_first	consonant	odd	9	Z	1	$
3	11	incentive	6	428.178	1	4	4	liquid feedback	switch	digit	congruent	digit_first	vowel	even	2	I	2	$$
3	11	incentive	7	543.403	1	4	4	liquid feedback	repeat	digit	incongruent	digit_first	consonant	even	8	L	2	$$
3	11	incentive	8	423.893	0	4	3	wrong resp	repeat	digit	congruent	letter_first	consonant	odd	Z	7	4	$$$$
3	11	incentive	9	650.404	1	4	4	liquid feedback	switch	letter	incongruent	letter_first	vowel	odd	U	9	1	$
3	11	incentive	10	452.065	1	4	4	liquid feedback	repeat	letter	congruent	digit_first	vowel	even	4	U	4	$$$$
3	11	incentive	11	631.166	0	3	4	wrong resp	switch	digit	congruent	letter_first	vowel	even	U	2	4	$$$$
3	11	incentive	12	438.161	1	4	4	liquid feedback	switch	letter	congruent	digit_first	vowel	even	8	U	2	$$
3	11	incentive	13	551.101	1	4	4	liquid feedback	repeat	letter	congruent	letter_first	vowel	even	E	4	1	$
3	11	incentive	14	331.038	0	4	3	wrong resp	switch	digit	incongruent	letter_first	vowel	odd	I	5	2	$$
3	11	incentive	15	390.344	0	4	3	wrong resp	switch	letter	congruent	letter_first	consonant	odd	X	5	4	$$$$
3	11	incentive	16	424.823	0	4	3	wrong resp	repeat	letter	congruent	digit_first	consonant	odd	3	Z	2	$$
3	11	incentive	17	504.257	1	4	4	liquid feedback	repeat	letter	incongruent	digit_first	vowel	odd	5	U	1	$
3	11	incentive	18	726.889	0	4	3	wrong resp	repeat	letter	congruent	digit_first	consonant	odd	9	Z	1	$
3	11	incentive	19	435.588	0	4	3	wrong resp	repeat	letter	congruent	letter_first	consonant	odd	L	3	1	$
3	11	incentive	20	505.259	1	4	4	liquid feedback	repeat	letter	incongruent	digit_first	vowel	odd	9	E	2	$$
3	11	incentive	21	730.207	0	3	4	wrong resp	repeat	letter	congruent	letter_first	vowel	even	A	6	1	$
3	11	incentive	22	447.718	1	4	4	liquid feedback	repeat	letter	incongruent	digit_first	vowel	odd	3	U	2	$$
3	11	incentive	23	388.661	1	4	4	liquid feedback	repeat	letter	incongruent	digit_first	vowel	odd	3	I	1	$
3	11	incentive	24	504.708	0	3	4	wrong resp	repeat	letter	congruent	letter_first	vowel	even	I	8	1	$
3	11	incentive	25	506.433	1	3	3	liquid feedback	switch	digit	incongruent	letter_first	vowel	odd	A	5	4	$$$$
3	11	incentive	26	356.815	0	4	3	wrong resp	switch	letter	incongruent	digit_first	consonant	even	4	P	2	$$
3	11	incentive	27	380.824	0	4	3	wrong resp	repeat	letter	incongruent	letter_first	consonant	even	X	8	2	$$
3	11	incentive	28	603.881	1	4	4	liquid feedback	switch	digit	congruent	digit_first	vowel	even	6	A	4	$$$$
3	11	incentive	29	528.996	1	3	3	liquid feedback	switch	letter	incongruent	letter_first	consonant	even	Z	8	2	$$
3	11	incentive	30	628.47	1	3	3	liquid feedback	switch	digit	incongruent	digit_first	vowel	odd	9	I	4	$$$$
3	11	incentive	31	620.448	1	4	4	liquid feedback	repeat	digit	congruent	letter_first	vowel	even	U	6	4	$$$$
3	11	incentive	32	588.272	0	3	4	wrong resp	repeat	digit	incongruent	letter_first	consonant	even	X	6	2	$$
3	11	incentive	33	440.865	1	4	4	liquid feedback	repeat	digit	incongruent	letter_first	consonant	even	L	8	4	$$$$
3	11	incentive	34	618.95	0	4	3	wrong resp	repeat	digit	congruent	letter_first	consonant	odd	P	9	2	$$
3	11	incentive	35	682.038	1	3	3	liquid feedback	switch	letter	incongruent	digit_first	consonant	even	2	P	2	$$
3	11	incentive	36	588.076	1	4	4	liquid feedback	repeat	letter	congruent	letter_first	vowel	even	E	8	1	$
3	11	incentive	37	527.336	1	4	4	liquid feedback	switch	digit	incongruent	digit_first	consonant	even	4	L	1	$
3	11	incentive	38	602.845	0	4	3	wrong resp	repeat	digit	congruent	letter_first	consonant	odd	P	9	1	$
3	11	incentive	39	418.555	1	4	4	liquid feedback	switch	letter	incongruent	letter_first	vowel	odd	I	7	4	$$$$
3	11	incentive	40	341.624	1	3	3	liquid feedback	switch	digit	incongruent	digit_first	vowel	odd	5	I	1	$
3	11	incentive	41	482.081	1	4	4	liquid feedback	repeat	digit	incongruent	digit_first	consonant	even	8	L	4	$$$$
3	11	incentive	42	286.632	0	4	3	wrong resp	repeat	digit	incongruent	digit_first	vowel	odd	7	A	4	$$$$
3	11	incentive	43	533.071	1	3	3	liquid feedback	repeat	digit	congruent	digit_first	consonant	odd	9	X	2	$$
3	11	incentive	44	1000.201	1	4	4	too slow	switch	letter	congruent	digit_first	vowel	even	6	I	2	$$
3	11	incentive	45	292.304	1	4	4	liquid feedback	switch	digit	incongruent	digit_first	consonant	even	8	L	4	$$$$
3	11	incentive	46	658.037	0	4	3	wrong resp	switch	letter	congruent	letter_first	consonant	odd	P	9	1	$
3	11	incentive	47	354.723	0	4	3	wrong resp	switch	digit	congruent	letter_first	consonant	odd	Z	9	1	$
3	11	incentive	48	516.218	1	3	3	liquid feedback	switch	letter	congruent	digit_first	consonant	odd	7	P	4	$$$$
3	12	incentive	1	440.48	0	4	3	wrong resp	switch	digit	incongruent	letter_first	vowel	odd	E	9	1	$
3	12	incentive	2	609.216	1	3	3	liquid feedback	repeat	digit	incongruent	letter_first	vowel	odd	U	7	1	$
3	12	incentive	3	507.532	1	3	3	liquid feedback	switch	letter	congruent	digit_first	consonant	odd	9	P	2	$$
3	12	incentive	4	743.641	1	3	3	liquid feedback	switch	digit	congruent	digit_first	consonant	odd	3	P	4	$$$$
3	12	incentive	5	414.842	0	4	3	wrong resp	switch	letter	incongruent	digit_first	consonant	even	8	P	4	$$$$
3	12	incentive	6	419.202	1	4	4	liquid feedback	repeat	letter	congruent	digit_first	vowel	even	2	I	2	$$
3	12	incentive	7	513.857	1	3	3	liquid feedback	switch	digit	incongruent	digit_first	vowel	odd	5	E	4	$$$$
3	12	incentive	8	573.184	1	3	3	liquid feedback	switch	letter	congruent	letter_first	consonant	odd	L	3	4	$$$$
3	12	incentive	9	444.069	0	4	3	wrong resp	switch	digit	incongruent	letter_first	vowel	odd	U	7	2	$$
3	12	incentive	10	397.453	1	4	4	liquid feedback	repeat	digit	congruent	letter_first	vowel	even	A	4	1	$
3	12	incentive	11	328.597	0	4	3	wrong resp	repeat	digit	congruent	letter_first	consonant	odd	P	7	2	$$
3	12	incentive	12	512.377	0	3	4	wrong resp	repeat	digit	incongruent	digit_first	consonant	even	6	Z	1	$
3	12	incentive	13	709.2	1	3	3	liquid feedback	repeat	digit	incongruent	letter_first	vowel	odd	A	9	2	$$
3	12	incentive	14	371.909	1	3	3	liquid feedback	repeat	digit	incongruent	digit_first	vowel	odd	9	I	4	$$$$
3	12	incentive	15	679.441	1	4	4	liquid feedback	switch	letter	incongruent	digit_first	vowel	odd	3	U	4	$$$$
3	12	incentive	16	726.457	1	4	4	liquid feedback	switch	digit	congruent	digit_first	vowel	even	8	A	2	$$
3	12	incentive	17	447.303	1	4	4	liquid feedback	repeat	digit	incongruent	digit_first	consonant	even	8	Z	2	$$
3	12	incentive	18	345.108	0	4	3	wrong resp	repeat	digit	congruent	letter_first	consonant	odd	L	9	2	$$
3	12	incentive	19	686.116	1	4	4	liquid feedback	switch	letter	incongruent	digit_first	vowel	odd	7	A	2	$$
3	12	incentive	20	855.649	1	3	3	too slow	repeat	letter	congruent	letter_first	consonant	odd	P	7	4	$$$$
3	12	incentive	21	435.975	0	3	4	wrong resp	repeat	letter	congruent	letter_first	vowel	even	U	4	4	$$$$
3	12	incentive	22	644.165	1	3	3	liquid feedback	repeat	letter	congruent	digit_first	consonant	odd	3	L	1	$
3	12	incentive	23	593.765	1	3	3	liquid feedback	repeat	letter	incongruent	digit_first	consonant	even	2	Z	1	$
3	12	incentive	24	590.654	1	3	3	liquid feedback	switch	digit	incongruent	digit_first	vowel	odd	5	I	4	$$$$
3	12	incentive	25	655.41	1	3	3	liquid feedback	repeat	digit	incongruent	letter_first	vowel	odd	E	9	4	$$$$
3	12	incentive	26	396.261	0	3	4	wrong resp	repeat	digit	congruent	digit_first	vowel	even	2	A	2	$$
3	12	incentive	27	602.599	1	3	3	liquid feedback	switch	letter	incongruent	digit_first	consonant	even	2	X	1	$
3	12	incentive	28	390.011	0	3	4	wrong resp	switch	digit	incongruent	letter_first	consonant	even	P	6	1	$
3	12	incentive	29	0				no response	switch	letter	congruent	letter_first	consonant	odd	P	3	1	$
3	12	incentive	30	857.627	0	3	4	wrong resp	switch	digit	congruent	letter_first	vowel	even	A	8	4	$$$$
3	12	incentive	31	0				no response	repeat	digit	incongruent	letter_first	consonant	even	L	8	4	$$$$
3	12	incentive	32	0				no response	switch	letter	congruent	letter_first	vowel	even	U	6	4	$$$$
3	12	incentive	33	NaN					NaN	NaN	NaN	NaN	NaN	NaN	NaN	NaN	NaN	NaN
3	12	incentive	34	NaN					NaN	NaN	NaN	NaN	NaN	NaN	NaN	NaN	NaN	NaN
3	12	incentive	35	NaN					NaN	NaN	NaN	NaN	NaN	NaN	NaN	NaN	NaN	NaN
3	12	incentive	36	NaN					NaN	NaN	NaN	NaN	NaN	NaN	NaN	NaN	NaN	NaN
3	12	incentive	37	NaN					NaN	NaN	NaN	NaN	NaN	NaN	NaN	NaN	NaN	NaN
3	12	incentive	38	NaN					NaN	NaN	NaN	NaN	NaN	NaN	NaN	NaN	NaN	NaN
3	12	incentive	39	NaN					NaN	NaN	NaN	NaN	NaN	NaN	NaN	NaN	NaN	NaN
3	12	incentive	40	NaN					NaN	NaN	NaN	NaN	NaN	NaN	NaN	NaN	NaN	NaN
3	12	incentive	41	NaN					NaN	NaN	NaN	NaN	NaN	NaN	NaN	NaN	NaN	NaN
3	12	incentive	42	NaN					NaN	NaN	NaN	NaN	NaN	NaN	NaN	NaN	NaN	NaN
3	12	incentive	43	NaN					NaN	NaN	NaN	NaN	NaN	NaN	NaN	NaN	NaN	NaN
3	12	incentive	44	NaN					NaN	NaN	NaN	NaN	NaN	NaN	NaN	NaN	NaN	NaN
3	12	incentive	45	NaN					NaN	NaN	NaN	NaN	NaN	NaN	NaN	NaN	NaN	NaN
3	12	incentive	46	NaN					NaN	NaN	NaN	NaN	NaN	NaN	NaN	NaN	NaN	NaN
3	12	incentive	47	NaN					NaN	NaN	NaN	NaN	NaN	NaN	NaN	NaN	NaN	NaN
3	12	incentive	48	NaN					NaN	NaN	NaN	NaN	NaN	NaN	NaN	NaN	NaN	NaN
3	13	incentive	1	482.648	1	3	3	liquid feedback	switch	digit	congruent	digit_first	consonant	odd	9	P	2	$$
3	13	incentive	2	585.934	0	3	4	wrong resp	repeat	digit	incongruent	letter_first	consonant	even	Z	4	4	$$$$
3	13	incentive	3	335.58	1	3	3	liquid feedback	repeat	digit	incongruent	letter_first	vowel	odd	I	3	1	$
3	13	incentive	4	459.638	0	4	3	wrong resp	switch	letter	incongruent	letter_first	consonant	even	X	6	2	$$
3	13	incentive	5	430.77	1	4	4	liquid feedback	switch	digit	incongruent	letter_first	consonant	even	X	2	4	$$$$
3	13	incentive	6	296.845	0	3	4	wrong resp	repeat	digit	congruent	digit_first	vowel	even	2	U	1	$
3	13	incentive	7	622.586	1	4	4	liquid feedback	repeat	digit	incongruent	digit_first	consonant	even	4	Z	4	$$$$
3	13	incentive	8	353.861	1	4	4	liquid feedback	repeat	digit	congruent	digit_first	vowel	even	2	I	2	$$
3	13	incentive	9	0				no response	switch	letter	incongruent	digit_first	consonant	even	2	P	1	$
3	13	incentive	10	543.27	1	3	3	liquid feedback	repeat	letter	congruent	letter_first	consonant	odd	Z	3	4	$$$$
3	13	incentive	11	395.166	0	3	4	wrong resp	repeat	letter	congruent	digit_first	vowel	even	8	U	4	$$$$
3	13	incentive	12	1946.682	0	4	3	wrong resp	repeat	letter	incongruent	digit_first	consonant	even	2	X	4	$$$$
3	13	incentive	13	506.104	1	4	4	liquid feedback	repeat	letter	congruent	letter_first	vowel	even	U	4	2	$$
3	13	incentive	14	308.148	1	3	3	liquid feedback	repeat	letter	incongruent	letter_first	consonant	even	P	4	2	$$
3	13	incentive	15	535.951	0	3	4	wrong resp	repeat	letter	congruent	digit_first	vowel	even	2	E	4	$$$$
3	13	incentive	16	406.857	1	4	4	liquid feedback	switch	digit	congruent	digit_first	vowel	even	2	E	2	$$
3	13	incentive	17	0				no response	repeat	digit	congruent	letter_first	consonant	odd	P	7	1	$
3	13	incentive	18	408.844	1	3	3	liquid feedback	switch	letter	incongruent	letter_first	consonant	even	L	6	4	$$$$
3	13	incentive	19	305.479	0	3	4	wrong resp	repeat	letter	incongruent	digit_first	vowel	odd	5	E	2	$$
3	13	incentive	20	0				no response	switch	digit	incongruent	digit_first	consonant	even	8	Z	1	$
3	13	incentive	21	0				no response	switch	letter	congruent	digit_first	consonant	odd	9	L	1	$
3	13	incentive	22	507.269	0	3	4	wrong resp	repeat	letter	congruent	letter_first	vowel	even	U	4	4	$$$$
3	13	incentive	23	272.258	1	3	3	liquid feedback	switch	digit	incongruent	letter_first	vowel	odd	U	7	2	$$
3	13	incentive	24	384.839	1	4	4	liquid feedback	repeat	digit	incongruent	digit_first	consonant	even	2	X	2	$$
3	13	incentive	25	0				no response	repeat	digit	incongruent	letter_first	vowel	odd	A	9	1	$
3	13	incentive	26	1265.369	0	3	4	wrong resp	repeat	digit	incongruent	letter_first	consonant	even	L	2	2	$$
3	13	incentive	27	708.307	1	4	4	liquid feedback	switch	letter	congruent	letter_first	vowel	even	E	6	2	$$
3	13	incentive	28	1262.082	1	3	3	too slow	switch	digit	congruent	digit_first	consonant	odd	3	P	4	$$$$
3	13	incentive	29	254.586	1	4	4	liquid feedback	switch	letter	congruent	digit_first	vowel	even	8	A	1	$
3	13	incentive	30	873.396	0	4	3	wrong resp	switch	digit	congruent	digit_first	consonant	odd	3	Z	1	$
3	13	incentive	31	305.36	0	4	3	wrong resp	repeat	digit	congruent	digit_first	consonant	odd	3	P	4	$$$$
3	13	incentive	32	567.14	1	4	4	liquid feedback	switch	letter	congruent	letter_first	vowel	even	A	4	1	$
3	13	incentive	33	477.456	1	4	4	liquid feedback	switch	digit	congruent	letter_first	vowel	even	E	2	1	$
3	13	incentive	34	648.983	1	4	4	liquid feedback	switch	letter	congruent	letter_first	vowel	even	I	2	2	$$
3	13	incentive	35	462.493	1	3	3	liquid feedback	switch	digit	incongruent	digit_first	vowel	odd	5	A	4	$$$$
3	13	incentive	36	929.445	0	4	3	wrong resp	switch	letter	incongruent	letter_first	consonant	even	Z	8	2	$$
3	13	incentive	37	562.244	0	3	4	wrong resp	repeat	letter	incongruent	digit_first	vowel	odd	9	A	2	$$
3	13	incentive	38	528.603	0	4	3	wrong resp	switch	digit	incongruent	digit_first	vowel	odd	9	U	4	$$$$
3	13	incentive	39	0				no response	repeat	digit	congruent	digit_first	vowel	even	2	A	1	$
3	13	incentive	40	0				no response	repeat	digit	congruent	digit_first	consonant	odd	7	P	1	$
3	13	incentive	41	0				no response	switch	letter	congruent	letter_first	vowel	even	A	6	1	$
3	13	incentive	42	0				no response	switch	digit	incongruent	letter_first	vowel	odd	E	3	1	$
3	13	incentive	43	356.252	1	4	4	liquid feedback	repeat	digit	congruent	digit_first	vowel	even	2	A	2	$$
3	13	incentive	44	0				no response	switch	letter	incongruent	letter_first	consonant	even	L	8	1	$
3	13	incentive	45	410.53	1	3	3	liquid feedback	repeat	letter	incongruent	digit_first	consonant	even	6	Z	2	$$
3	13	incentive	46	530.971	1	3	3	liquid feedback	repeat	letter	incongruent	letter_first	consonant	even	P	8	4	$$$$
3	13	incentive	47	532.538	1	4	4	liquid feedback	switch	digit	incongruent	letter_first	consonant	even	X	4	4	$$$$
3	13	incentive	48	396.373	0	3	4	wrong resp	switch	letter	congruent	letter_first	vowel	even	U	6	4	$$$$
3	14	incentive	1	365.336	1	3	3	liquid feedback	repeat	letter	congruent	digit_first	consonant	odd	3	L	4	$$$$
3	14	incentive	2	538.192	1	3	3	liquid feedback	switch	digit	incongruent	letter_first	vowel	odd	I	3	4	$$$$
3	14	incentive	3	572.188	0	3	4	wrong resp	switch	letter	congruent	letter_first	vowel	even	U	8	4	$$$$
3	14	incentive	4	545.202	1	3	3	liquid feedback	repeat	letter	incongruent	digit_first	consonant	even	4	X	2	$$
3	14	incentive	5	384.053	0	3	4	wrong resp	switch	digit	congruent	letter_first	vowel	even	U	8	2	$$
3	14	incentive	6	0				no response	repeat	digit	congruent	letter_first	vowel	even	A	8	1	$
3	14	incentive	7	557.067	0	3	4	wrong resp	repeat	digit	congruent	letter_first	vowel	even	E	8	4	$$$$
3	14	incentive	8	480.288	1	4	4	liquid feedback	switch	letter	congruent	digit_first	vowel	even	6	U	4	$$$$
3	14	incentive	9	818.578	0	4	3	wrong resp	switch	digit	incongruent	letter_first	vowel	odd	I	7	4	$$$$
3	14	incentive	10	339.268	1	3	3	liquid feedback	repeat	digit	congruent	letter_first	consonant	odd	X	3	2	$$
3	14	incentive	11	0				no response	switch	letter	incongruent	digit_first	vowel	odd	3	A	1	$
3	14	incentive	12	0				no response	repeat	letter	congruent	digit_first	consonant	odd	5	Z	1	$
3	14	incentive	13	0				no response	repeat	letter	congruent	digit_first	vowel	even	2	A	1	$
3	14	incentive	14	424.856	1	3	3	liquid feedback	switch	digit	incongruent	letter_first	vowel	odd	U	3	4	$$$$
3	14	incentive	15	0				no response	repeat	digit	congruent	digit_first	consonant	odd	9	P	1	$
3	14	incentive	16	880.247	0	4	3	wrong resp	repeat	digit	congruent	digit_first	consonant	odd	5	L	2	$$
3	14	incentive	17	385.352	0	4	3	wrong resp	repeat	digit	congruent	digit_first	consonant	odd	7	Z	2	$$
3	14	incentive	18	445.768	1	3	3	liquid feedback	switch	letter	congruent	letter_first	consonant	odd	Z	5	2	$$
3	14	incentive	19	520.981	0	3	4	wrong resp	switch	digit	incongruent	letter_first	consonant	even	P	4	4	$$$$
3	14	incentive	20	0				no response	repeat	digit	incongruent	digit_first	vowel	odd	3	I	1	$
3	14	incentive	21	0				no response	switch	letter	congruent	letter_first	consonant	odd	Z	3	1	$
3	14	incentive	22	383.856	1	3	3	liquid feedback	repeat	letter	incongruent	digit_first	consonant	even	6	X	2	$$
3	14	incentive	23	463.213	1	3	3	liquid feedback	switch	digit	incongruent	digit_first	vowel	odd	9	U	2	$$
3	14	incentive	24	292.015	0	3	4	wrong resp	switch	letter	congruent	digit_first	vowel	even	4	A	2	$$
3	14	incentive	25	622.836	1	3	3	liquid feedback	switch	digit	incongruent	letter_first	vowel	odd	A	5	2	$$
3	14	incentive	26	1040.936	0	4	3	wrong resp	switch	letter	congruent	letter_first	consonant	odd	Z	5	2	$$
3	14	incentive	27	330.343	0	3	4	wrong resp	switch	digit	congruent	digit_first	vowel	even	4	U	2	$$
3	14	incentive	28	0				no response	switch	letter	incongruent	digit_first	consonant	even	8	Z	1	$
3	14	incentive	29	0				no response	switch	digit	incongruent	letter_first	consonant	even	L	8	1	$
3	14	incentive	30	393.132	0	3	4	wrong resp	switch	letter	incongruent	letter_first	vowel	odd	U	5	4	$$$$
3	14	incentive	31	400.292	1	3	3	liquid feedback	repeat	letter	incongruent	digit_first	consonant	even	2	X	2	$$
3	14	incentive	32	495.684	0	3	4	wrong resp	repeat	letter	incongruent	digit_first	vowel	odd	5	I	4	$$$$
3	14	incentive	33	673.772	1	4	4	liquid feedback	repeat	letter	congruent	letter_first	vowel	even	U	8	4	$$$$
3	14	incentive	34	0				no response	repeat	letter	congruent	digit_first	vowel	even	2	E	1	$
3	14	incentive	35	0				no response	switch	digit	incongruent	letter_first	consonant	even	L	8	1	$
3	14	incentive	36	286.884	1	4	4	liquid feedback	repeat	digit	congruent	letter_first	vowel	even	A	2	2	$$
3	14	incentive	37	301.69	0	3	4	wrong resp	switch	letter	incongruent	letter_first	vowel	odd	A	7	2	$$
3	14	incentive	38	257.117	1	4	4	liquid feedback	switch	digit	incongruent	digit_first	consonant	even	8	Z	2	$$
3	14	incentive	39	630.764	1	4	4	liquid feedback	repeat	digit	incongruent	letter_first	consonant	even	Z	2	4	$$$$
3	14	incentive	40	510.818	1	3	3	liquid feedback	switch	letter	congruent	digit_first	consonant	odd	9	L	4	$$$$
3	14	incentive	41	987.411	0	3	4	wrong resp	repeat	letter	incongruent	digit_first	vowel	odd	7	E	1	$
3	14	incentive	42	987.745	1	3	3	too slow	repeat	letter	incongruent	letter_first	consonant	even	L	4	1	$
3	14	incentive	43	1436.038	1	3	3	too slow	repeat	letter	incongruent	letter_first	consonant	even	Z	4	4	$$$$
3	14	incentive	44	0				no response	repeat	letter	incongruent	letter_first	consonant	even	Z	2	1	$
3	14	incentive	45	418.167	0	3	4	wrong resp	switch	digit	congruent	digit_first	vowel	even	2	I	4	$$$$
3	14	incentive	46	0				no response	switch	letter	congruent	digit_first	consonant	odd	5	L	1	$
3	14	incentive	47	458.397	1	3	3	liquid feedback	repeat	letter	incongruent	digit_first	consonant	even	4	L	4	$$$$
3	14	incentive	48	0				no response	repeat	letter	congruent	letter_first	vowel	even	I	4	1	$
4	8	baseline	1	899.066	1	3	3	none	switch	letter	congruent	digit_first	consonant	even	6	X	4	$$$$
4	8	baseline	2	1073.407	1	4	4	none	switch	digit	incongruent	digit_first	consonant	odd	3	X	2	$$
4	8	baseline	3	979.771	1	3	3	none	switch	letter	congruent	letter_first	consonant	even	Z	4	2	$$
4	8	baseline	4	1454.881	1	4	4	none	switch	digit	incongruent	letter_first	consonant	odd	Z	9	2	$$
4	8	baseline	5	748.422	1	3	3	none	switch	letter	incongruent	letter_first	consonant	odd	Z	5	1	$
4	8	baseline	6	830.342	1	4	4	none	switch	digit	congruent	digit_first	vowel	odd	9	A	4	$$$$
4	8	baseline	7	632.473	1	3	3	none	repeat	digit	incongruent	digit_first	vowel	even	8	I	2	$$
4	8	baseline	8	785.02	1	3	3	none	repeat	digit	congruent	digit_first	consonant	even	4	Z	1	$
4	8	baseline	9	916.9	1	4	4	none	repeat	digit	congruent	letter_first	vowel	odd	I	5	4	$$$$
4	8	baseline	10	809.873	1	4	4	none	repeat	digit	incongruent	letter_first	consonant	odd	L	9	2	$$
4	8	baseline	11	909.094	1	4	4	none	switch	letter	congruent	letter_first	vowel	odd	U	9	2	$$
4	8	baseline	12	1105.396	1	3	3	none	switch	digit	congruent	digit_first	consonant	even	2	X	4	$$$$
4	8	baseline	13	712.475	1	3	3	none	switch	letter	congruent	letter_first	consonant	even	X	4	2	$$
4	8	baseline	14	975.387	1	3	3	none	repeat	letter	incongruent	letter_first	consonant	odd	P	7	4	$$$$
4	8	baseline	15	1025.57	1	4	4	none	switch	digit	congruent	digit_first	vowel	odd	7	I	2	$$
4	8	baseline	16	1565.863	1	4	4	none	switch	letter	incongruent	letter_first	vowel	even	E	2	1	$
4	8	baseline	17	1016.545	1	4	4	none	repeat	letter	incongruent	digit_first	vowel	even	6	I	4	$$$$
4	8	baseline	18	1748.825	1	3	3	none	switch	digit	congruent	digit_first	consonant	even	8	P	2	$$
4	8	baseline	19	769.018	1	3	3	none	repeat	digit	incongruent	letter_first	vowel	even	E	4	1	$
4	8	baseline	20	817.024	1	4	4	none	repeat	digit	congruent	letter_first	vowel	odd	A	3	4	$$$$
4	8	baseline	21	1041.045	1	3	3	none	switch	letter	congruent	digit_first	consonant	even	8	P	4	$$$$
4	8	baseline	22	922.24	1	4	4	none	switch	digit	congruent	letter_first	vowel	odd	U	7	1	$
4	8	baseline	23	902.044	1	3	3	none	repeat	digit	congruent	digit_first	consonant	even	6	X	1	$
4	8	baseline	24	1523.46	1	3	3	none	repeat	digit	incongruent	digit_first	vowel	even	8	A	2	$$
4	8	baseline	25	871.009	1	3	3	none	repeat	digit	incongruent	letter_first	vowel	even	U	6	1	$
4	8	baseline	26	751.822	1	3	3	none	switch	letter	incongruent	digit_first	consonant	odd	7	X	4	$$$$
4	8	baseline	27	1162.106	1	4	4	none	switch	digit	congruent	digit_first	vowel	odd	3	E	4	$$$$
4	8	baseline	28	889.022	1	3	3	none	repeat	digit	incongruent	letter_first	vowel	even	U	6	1	$
4	8	baseline	29	729.549	1	3	3	none	switch	letter	congruent	digit_first	consonant	even	8	X	1	$
4	8	baseline	30	1001.71	1	4	4	none	repeat	letter	congruent	digit_first	vowel	odd	7	U	1	$
4	8	baseline	31	1086.378	1	4	4	none	repeat	letter	congruent	letter_first	vowel	odd	I	7	2	$$
4	8	baseline	32	768.408	1	4	4	none	switch	digit	incongruent	digit_first	consonant	odd	3	P	1	$
4	8	baseline	33	0				none	switch	letter	congruent	letter_first	vowel	odd	E	9	4	$$$$
4	8	baseline	34	712.916	1	4	4	none	switch	digit	incongruent	letter_first	consonant	odd	L	7	1	$
4	8	baseline	35	1026.315	1	3	3	none	repeat	digit	incongruent	digit_first	vowel	even	8	U	2	$$
4	8	baseline	36	921.422	1	3	3	none	repeat	digit	congruent	digit_first	consonant	even	4	P	4	$$$$
4	8	baseline	37	756.344	1	3	3	none	repeat	digit	incongruent	letter_first	vowel	even	I	4	4	$$$$
4	8	baseline	38	969.395	1	4	4	none	repeat	digit	incongruent	digit_first	consonant	odd	5	L	1	$
4	8	baseline	39	1186.473	1	4	4	none	repeat	digit	incongruent	letter_first	consonant	odd	X	7	2	$$
4	8	baseline	40	753.522	1	3	3	none	repeat	digit	congruent	digit_first	consonant	even	4	L	4	$$$$
4	8	baseline	41	935.292	1	4	4	none	switch	letter	congruent	digit_first	vowel	odd	3	E	2	$$
4	8	baseline	42	827.375	1	3	3	none	switch	digit	incongruent	letter_first	vowel	even	E	4	1	$
4	8	baseline	43	956.387	1	3	3	none	repeat	digit	incongruent	digit_first	vowel	even	8	I	4	$$$$
4	8	baseline	44	927.766	1	4	4	none	repeat	digit	incongruent	letter_first	consonant	odd	P	7	2	$$
4	8	baseline	45	1085.688	1	3	3	none	repeat	digit	incongruent	letter_first	vowel	even	E	8	4	$$$$
4	8	baseline	46	873.229	1	3	3	none	repeat	digit	incongruent	letter_first	vowel	even	A	8	2	$$
4	8	baseline	47	651.482	1	3	3	none	switch	letter	congruent	letter_first	consonant	even	Z	2	1	$
4	8	baseline	48	701.101	1	3	3	none	switch	digit	congruent	digit_first	consonant	even	4	X	1	$
4	9	incentive	1	778.352	1	4	4	liquid feedback	repeat	digit	incongruent	letter_first	consonant	odd	P	3	4	$$$$
4	9	incentive	2	744.03	1	3	3	liquid feedback	switch	letter	incongruent	letter_first	consonant	odd	Z	7	2	$$
4	9	incentive	3	917.596	1	4	4	too slow	switch	digit	congruent	letter_first	vowel	odd	I	5	4	$$$$
4	9	incentive	4	609.275	1	4	4	liquid feedback	repeat	digit	incongruent	digit_first	consonant	odd	7	P	1	$
4	9	incentive	5	910.979	1	4	4	too slow	repeat	digit	incongruent	digit_first	consonant	odd	9	Z	2	$$
4	9	incentive	6	817.951	1	4	4	liquid feedback	repeat	digit	congruent	digit_first	vowel	odd	7	A	1	$
4	9	incentive	7	851.657	1	3	3	liquid feedback	repeat	digit	incongruent	digit_first	vowel	even	4	U	4	$$$$
4	9	incentive	8	678.876	1	4	4	liquid feedback	switch	letter	congruent	letter_first	vowel	odd	E	9	1	$
4	9	incentive	9	664.437	1	3	3	liquid feedback	switch	digit	incongruent	digit_first	vowel	even	4	E	4	$$$$
4	9	incentive	10	1770.813	0	3	4	wrong resp	switch	letter	incongruent	letter_first	vowel	even	E	4	1	$
4	9	incentive	11	837.061	1	3	3	liquid feedback	switch	digit	incongruent	letter_first	vowel	even	E	4	1	$
4	9	incentive	12	804.63	1	4	4	liquid feedback	repeat	digit	incongruent	letter_first	consonant	odd	X	3	1	$
4	9	incentive	13	0				no response	repeat	digit	incongruent	digit_first	consonant	odd	3	L	2	$$
4	9	incentive	14	750.698	1	4	4	liquid feedback	repeat	digit	congruent	letter_first	vowel	odd	A	7	4	$$$$
4	9	incentive	15	837.553	1	4	4	liquid feedback	repeat	digit	congruent	digit_first	vowel	odd	7	I	2	$$
4	9	incentive	16	1057.059	1	3	3	too slow	switch	letter	incongruent	digit_first	consonant	odd	7	X	4	$$$$
4	9	incentive	17	867.645	1	3	3	liquid feedback	switch	digit	congruent	letter_first	consonant	even	Z	4	2	$$
4	9	incentive	18	895.163	1	3	3	too slow	repeat	digit	incongruent	digit_first	vowel	even	4	A	1	$
4	9	incentive	19	787.592	1	4	4	liquid feedback	repeat	digit	congruent	digit_first	vowel	odd	3	E	4	$$$$
4	9	incentive	20	921.559	1	4	4	too slow	switch	letter	incongruent	digit_first	vowel	even	4	U	4	$$$$
4	9	incentive	21	818.885	1	4	4	liquid feedback	switch	digit	congruent	letter_first	vowel	odd	U	9	1	$
4	9	incentive	22	1122.152	1	3	3	too slow	repeat	digit	congruent	letter_first	consonant	even	X	6	2	$$
4	9	incentive	23	682.17	1	3	3	liquid feedback	repeat	digit	incongruent	digit_first	vowel	even	4	U	2	$$
4	9	incentive	24	635.854	1	3	3	liquid feedback	repeat	digit	congruent	digit_first	consonant	even	2	X	2	$$
4	9	incentive	25	619.038	1	3	3	liquid feedback	repeat	digit	congruent	digit_first	consonant	even	4	P	2	$$
4	9	incentive	26	764.603	1	4	4	liquid feedback	repeat	digit	congruent	letter_first	vowel	odd	U	5	2	$$
4	9	incentive	27	826.265	1	4	4	liquid feedback	repeat	digit	congruent	letter_first	vowel	odd	A	7	1	$
4	9	incentive	28	1205.211	1	3	3	too slow	switch	letter	incongruent	letter_first	consonant	odd	P	7	2	$$
4	9	incentive	29	1169.296	1	4	4	too slow	switch	digit	incongruent	letter_first	consonant	odd	L	3	2	$$
4	9	incentive	30	1029.766	1	4	4	too slow	switch	letter	congruent	digit_first	vowel	odd	7	E	1	$
4	9	incentive	31	755.614	1	4	4	liquid feedback	switch	digit	incongruent	digit_first	consonant	odd	9	X	4	$$$$
4	9	incentive	32	555.35	1	3	3	liquid feedback	switch	letter	congruent	letter_first	consonant	even	X	8	1	$
4	9	incentive	33	792.917	1	4	4	liquid feedback	switch	digit	incongruent	digit_first	consonant	odd	3	Z	2	$$
4	9	incentive	34	612.313	1	3	3	liquid feedback	repeat	digit	congruent	digit_first	consonant	even	2	X	4	$$$$
4	9	incentive	35	661.543	1	3	3	liquid feedback	switch	letter	incongruent	letter_first	consonant	odd	X	7	4	$$$$
4	9	incentive	36	620.823	1	3	3	liquid feedback	repeat	letter	incongruent	letter_first	consonant	odd	L	3	2	$$
4	9	incentive	37	1065.351	1	4	4	too slow	switch	digit	incongruent	letter_first	consonant	odd	L	9	4	$$$$
4	9	incentive	38	680.765	1	4	4	liquid feedback	switch	letter	congruent	letter_first	vowel	odd	A	3	4	$$$$
4	9	incentive	39	698.804	1	4	4	liquid feedback	repeat	letter	incongruent	digit_first	vowel	even	6	A	1	$
4	9	incentive	40	602.027	1	4	4	liquid feedback	repeat	letter	incongruent	digit_first	vowel	even	2	A	2	$$
4	9	incentive	41	1095.165	1	3	3	too slow	switch	digit	congruent	letter_first	consonant	even	L	6	1	$
4	9	incentive	42	1703.234	1	4	4	too slow	repeat	digit	congruent	digit_first	vowel	odd	5	U	1	$
4	9	incentive	43	995.986	1	3	3	too slow	repeat	digit	congruent	letter_first	consonant	even	Z	8	4	$$$$
4	9	incentive	44	703.373	1	3	3	liquid feedback	repeat	digit	congruent	digit_first	consonant	even	2	L	4	$$$$
4	9	incentive	45	765.053	1	4	4	liquid feedback	switch	letter	congruent	letter_first	vowel	odd	U	7	1	$
4	9	incentive	46	609.617	1	4	4	liquid feedback	switch	digit	congruent	letter_first	vowel	odd	I	7	1	$
4	9	incentive	47	666.292	1	3	3	liquid feedback	switch	letter	incongruent	digit_first	consonant	odd	3	L	4	$$$$
4	9	incentive	48	675.773	1	4	4	liquid feedback	switch	digit	congruent	digit_first	vowel	odd	5	U	2	$$
4	10	incentive	1	754.247	1	3	3	liquid feedback	repeat	digit	congruent	letter_first	consonant	even	L	6	2	$$
4	10	incentive	2	521.667	1	3	3	liquid feedback	switch	letter	incongruent	letter_first	consonant	odd	P	7	4	$$$$
4	10	incentive	3	797.999	1	4	4	liquid feedback	switch	digit	congruent	digit_first	vowel	odd	9	U	2	$$
4	10	incentive	4	870.297	1	3	3	liquid feedback	switch	letter	incongruent	letter_first	consonant	odd	L	3	4	$$$$
4	10	incentive	5	1176.857	0	3	4	wrong resp	switch	digit	congruent	digit_first	vowel	odd	5	E	2	$$
4	10	incentive	6	812.454	1	4	4	liquid feedback	switch	letter	congruent	digit_first	vowel	odd	5	I	1	$
4	10	incentive	7	962.934	1	3	3	too slow	repeat	letter	incongruent	digit_first	consonant	odd	9	X	1	$
4	10	incentive	8	633.797	1	3	3	liquid feedback	repeat	letter	congruent	letter_first	consonant	even	X	2	1	$
4	10	incentive	9	844.87	1	3	3	liquid feedback	switch	digit	incongruent	letter_first	vowel	even	U	2	4	$$$$
4	10	incentive	10	871.189	1	4	4	too slow	repeat	digit	congruent	digit_first	vowel	odd	9	I	2	$$
4	10	incentive	11	937.114	1	4	4	too slow	switch	letter	incongruent	letter_first	vowel	even	U	6	2	$$
4	10	incentive	12	858.837	1	4	4	liquid feedback	repeat	letter	incongruent	digit_first	vowel	even	4	A	1	$
4	10	incentive	13	782.05	1	4	4	liquid feedback	repeat	letter	congruent	digit_first	vowel	odd	3	A	4	$$$$
4	10	incentive	14	1292.411	1	3	3	too slow	repeat	letter	congruent	digit_first	consonant	even	6	L	1	$
4	10	incentive	15	598.27	1	3	3	liquid feedback	repeat	letter	incongruent	digit_first	consonant	odd	9	X	1	$
4	10	incentive	16	648.55	1	3	3	liquid feedback	repeat	letter	incongruent	letter_first	consonant	odd	X	5	1	$
4	10	incentive	17	751.38	1	3	3	liquid feedback	repeat	letter	incongruent	digit_first	consonant	odd	5	P	2	$$
4	10	incentive	18	978.08	1	3	3	too slow	switch	digit	incongruent	letter_first	vowel	even	U	2	4	$$$$
4	10	incentive	19	601.974	1	3	3	liquid feedback	switch	letter	incongruent	letter_first	consonant	odd	P	7	1	$
4	10	incentive	20	718.971	1	3	3	liquid feedback	repeat	letter	congruent	letter_first	consonant	even	L	4	4	$$$$
4	10	incentive	21	1641.745	1	4	4	too slow	switch	digit	incongruent	letter_first	consonant	odd	L	5	2	$$
4	10	incentive	22	972.864	1	3	3	too slow	repeat	digit	congruent	digit_first	consonant	even	6	X	4	$$$$
4	10	incentive	23	800.924	1	4	4	liquid feedback	repeat	digit	congruent	digit_first	vowel	odd	7	A	2	$$
4	10	incentive	24	1048.958	1	4	4	too slow	repeat	digit	incongruent	letter_first	consonant	odd	X	7	4	$$$$
4	10	incentive	25	637.922	1	4	4	liquid feedback	repeat	digit	congruent	letter_first	vowel	odd	E	7	2	$$
4	10	incentive	26	633.645	1	4	4	liquid feedback	repeat	digit	congruent	letter_first	vowel	odd	E	7	2	$$
4	10	incentive	27	1148.751	1	4	4	too slow	switch	letter	congruent	digit_first	vowel	odd	9	E	2	$$
4	10	incentive	28	945.752	1	3	3	too slow	repeat	letter	incongruent	digit_first	consonant	odd	5	Z	1	$
4	10	incentive	29	941.639	1	4	4	too slow	switch	digit	congruent	digit_first	vowel	odd	7	E	1	$
4	10	incentive	30	576.468	1	3	3	liquid feedback	switch	letter	incongruent	digit_first	consonant	odd	9	L	4	$$$$
4	10	incentive	31	1465.749	0	3	4	wrong resp	repeat	letter	congruent	letter_first	vowel	odd	E	5	2	$$
4	10	incentive	32	1214.476	1	3	3	too slow	switch	digit	incongruent	letter_first	vowel	even	A	4	1	$
4	10	incentive	33	762.95	1	3	3	liquid feedback	switch	letter	congruent	letter_first	consonant	even	L	4	1	$
4	10	incentive	34	1005.084	1	3	3	too slow	switch	digit	congruent	digit_first	consonant	even	4	X	2	$$
4	10	incentive	35	556.314	1	4	4	liquid feedback	repeat	digit	incongruent	letter_first	consonant	odd	X	9	4	$$$$
4	10	incentive	36	568.134	1	4	4	liquid feedback	switch	letter	incongruent	digit_first	vowel	even	2	A	4	$$$$
4	10	incentive	37	1206.535	1	3	3	too slow	repeat	letter	congruent	digit_first	consonant	even	4	L	1	$
4	10	incentive	38	638.976	1	4	4	liquid feedback	repeat	letter	incongruent	digit_first	vowel	even	4	A	4	$$$$
4	10	incentive	39	1464.521	1	4	4	too slow	switch	digit	congruent	digit_first	vowel	odd	3	I	2	$$
4	10	incentive	40	999.028	1	4	4	too slow	switch	letter	incongruent	letter_first	vowel	even	A	6	2	$$
4	10	incentive	41	626.48	1	3	3	liquid feedback	repeat	letter	incongruent	letter_first	consonant	odd	L	7	1	$
4	10	incentive	42	651.603	1	4	4	liquid feedback	switch	digit	incongruent	letter_first	consonant	odd	Z	9	4	$$$$
4	10	incentive	43	1091.375	1	3	3	too slow	repeat	digit	incongruent	letter_first	vowel	even	I	8	1	$
4	10	incentive	44	670.586	1	3	3	liquid feedback	switch	letter	congruent	digit_first	consonant	even	6	P	4	$$$$
4	10	incentive	45	1027.995	1	3	3	too slow	switch	digit	congruent	letter_first	consonant	even	X	6	1	$
4	10	incentive	46	749.708	1	4	4	liquid feedback	switch	letter	congruent	digit_first	vowel	odd	3	I	4	$$$$
4	10	incentive	47	1007.84	1	3	3	too slow	switch	digit	incongruent	letter_first	vowel	even	A	8	2	$$
4	10	incentive	48	669.484	1	4	4	liquid feedback	repeat	digit	congruent	digit_first	vowel	odd	7	A	4	$$$$
4	11	incentive	1	605.089	1	3	3	liquid feedback	switch	letter	incongruent	letter_first	consonant	odd	X	7	4	$$$$
4	11	incentive	2	938.005	1	4	4	too slow	switch	digit	congruent	letter_first	vowel	odd	I	3	1	$
4	11	incentive	3	962.698	1	4	4	too slow	repeat	digit	congruent	digit_first	vowel	odd	5	U	1	$
4	11	incentive	4	716.162	1	4	4	liquid feedback	repeat	digit	incongruent	letter_first	consonant	odd	L	9	4	$$$$
4	11	incentive	5	1864.583	1	4	4	too slow	repeat	digit	congruent	digit_first	vowel	odd	9	A	1	$
4	11	incentive	6	568.396	1	3	3	liquid feedback	switch	letter	incongruent	digit_first	consonant	odd	9	X	4	$$$$
4	11	incentive	7	1628.67	1	3	3	too slow	switch	digit	congruent	digit_first	consonant	even	2	L	2	$$
4	11	incentive	8	706.473	1	3	3	liquid feedback	repeat	digit	incongruent	digit_first	vowel	even	6	U	1	$
4	11	incentive	9	758.11	1	4	4	liquid feedback	switch	letter	incongruent	letter_first	vowel	even	E	2	1	$
4	11	incentive	10	776.686	1	3	3	liquid feedback	switch	digit	incongruent	letter_first	vowel	even	I	2	1	$
4	11	incentive	11	684.119	1	3	3	liquid feedback	switch	letter	incongruent	letter_first	consonant	odd	P	9	4	$$$$
4	11	incentive	12	744.312	1	3	3	liquid feedback	switch	digit	congruent	digit_first	consonant	even	2	X	2	$$
4	11	incentive	13	686.916	1	3	3	liquid feedback	repeat	digit	congruent	digit_first	consonant	even	4	X	2	$$
4	11	incentive	14	695.747	1	3	3	liquid feedback	repeat	digit	incongruent	digit_first	vowel	even	8	E	1	$
4	11	incentive	15	748.885	1	3	3	liquid feedback	repeat	digit	congruent	digit_first	consonant	even	8	L	2	$$
4	11	incentive	16	1279.537	1	4	4	too slow	switch	letter	incongruent	letter_first	vowel	even	A	8	2	$$
4	11	incentive	17	671.753	1	3	3	liquid feedback	repeat	letter	incongruent	digit_first	consonant	odd	9	Z	1	$
4	11	incentive	18	806.558	1	3	3	liquid feedback	switch	digit	incongruent	letter_first	vowel	even	I	8	4	$$$$
4	11	incentive	19	729.404	1	4	4	liquid feedback	repeat	digit	congruent	letter_first	vowel	odd	U	9	4	$$$$
4	11	incentive	20	684.936	1	3	3	liquid feedback	repeat	digit	congruent	letter_first	consonant	even	P	8	2	$$
4	11	incentive	21	925.508	1	4	4	too slow	repeat	digit	incongruent	digit_first	consonant	odd	5	P	1	$
4	11	incentive	22	739.842	1	3	3	liquid feedback	switch	letter	congruent	digit_first	consonant	even	8	Z	2	$$
4	11	incentive	23	581.464	1	3	3	liquid feedback	repeat	letter	congruent	letter_first	consonant	even	P	2	4	$$$$
4	11	incentive	24	1301.231	1	4	4	too slow	repeat	letter	incongruent	letter_first	vowel	even	I	6	2	$$
4	11	incentive	25	1319.66	1	4	4	too slow	switch	digit	congruent	letter_first	vowel	odd	E	5	4	$$$$
4	11	incentive	26	578.58	1	3	3	liquid feedback	switch	letter	incongruent	letter_first	consonant	odd	P	5	2	$$
4	11	incentive	27	650.963	1	3	3	liquid feedback	repeat	letter	congruent	letter_first	consonant	even	P	6	4	$$$$
4	11	incentive	28	670.954	0	4	3	wrong resp	switch	digit	congruent	letter_first	consonant	even	Z	8	1	$
4	11	incentive	29	602.136	1	4	4	liquid feedback	repeat	digit	congruent	letter_first	vowel	odd	E	9	1	$
4	11	incentive	30	618.508	1	3	3	liquid feedback	switch	letter	congruent	letter_first	consonant	even	Z	8	1	$
4	11	incentive	31	879.441	1	4	4	too slow	repeat	letter	congruent	digit_first	vowel	odd	5	A	4	$$$$
4	11	incentive	32	1521.217	1	4	4	too slow	switch	digit	congruent	digit_first	vowel	odd	7	A	4	$$$$
4	11	incentive	33	637.045	1	4	4	liquid feedback	switch	letter	incongruent	letter_first	vowel	even	A	4	2	$$
4	11	incentive	34	870.908	1	4	4	liquid feedback	switch	digit	incongruent	digit_first	consonant	odd	3	L	1	$
4	11	incentive	35	512.33	1	4	4	liquid feedback	switch	letter	incongruent	digit_first	vowel	even	4	U	2	$$
4	11	incentive	36	1336.272	1	3	3	too slow	switch	digit	congruent	digit_first	consonant	even	6	L	1	$
4	11	incentive	37	1146.49	1	3	3	too slow	repeat	digit	congruent	digit_first	consonant	even	6	Z	4	$$$$
4	11	incentive	38	616.688	1	4	4	liquid feedback	switch	letter	incongruent	letter_first	vowel	even	E	2	4	$$$$
4	11	incentive	39	742.222	1	4	4	liquid feedback	repeat	letter	congruent	letter_first	vowel	odd	U	3	2	$$
4	11	incentive	40	612.74	1	4	4	liquid feedback	repeat	letter	incongruent	letter_first	vowel	even	E	8	1	$
4	11	incentive	41	1009.136	1	4	4	too slow	switch	digit	congruent	digit_first	vowel	odd	3	I	2	$$
4	11	incentive	42	824.214	1	3	3	liquid feedback	repeat	digit	incongruent	letter_first	vowel	even	I	2	2	$$
4	11	incentive	43	835.45	1	3	3	liquid feedback	repeat	digit	congruent	digit_first	consonant	even	6	Z	1	$
4	11	incentive	44	808.218	1	4	4	liquid feedback	repeat	digit	incongruent	letter_first	consonant	odd	L	3	4	$$$$
4	11	incentive	45	964.065	1	4	4	too slow	repeat	digit	incongruent	digit_first	consonant	odd	5	L	2	$$
4	11	incentive	46	650.338	1	4	4	liquid feedback	switch	letter	congruent	digit_first	vowel	odd	3	E	4	$$$$
4	11	incentive	47	685.942	1	4	4	liquid feedback	repeat	letter	incongruent	digit_first	vowel	even	8	I	2	$$
4	11	incentive	48	817.106	1	4	4	liquid feedback	switch	digit	incongruent	digit_first	consonant	odd	3	L	4	$$$$
4	12	incentive	1	926.465	1	3	3	too slow	switch	digit	congruent	letter_first	consonant	even	L	8	2	$$
4	12	incentive	2	720.168	1	4	4	liquid feedback	repeat	digit	congruent	letter_first	vowel	odd	U	5	1	$
4	12	incentive	3	835.435	1	4	4	liquid feedback	switch	letter	incongruent	digit_first	vowel	even	8	U	1	$
4	12	incentive	4	1090.773	1	3	3	too slow	repeat	letter	incongruent	digit_first	consonant	odd	7	P	2	$$
4	12	incentive	5	1683.49	0	3	4	wrong resp	repeat	letter	congruent	letter_first	vowel	odd	U	3	1	$
4	12	incentive	6	802.044	1	3	3	liquid feedback	switch	digit	incongruent	letter_first	vowel	even	I	4	4	$$$$
4	12	incentive	7	795.671	1	4	4	liquid feedback	switch	letter	incongruent	digit_first	vowel	even	2	U	1	$
4	12	incentive	8	682.082	1	3	3	liquid feedback	repeat	letter	congruent	digit_first	consonant	even	8	P	1	$
4	12	incentive	9	857.647	1	3	3	liquid feedback	repeat	letter	incongruent	letter_first	consonant	odd	X	5	1	$
4	12	incentive	10	1122.054	1	4	4	too slow	repeat	letter	incongruent	digit_first	vowel	even	4	U	1	$
4	12	incentive	11	940.468	1	4	4	too slow	repeat	letter	incongruent	digit_first	vowel	even	8	I	2	$$
4	12	incentive	12	1045.404	1	3	3	too slow	switch	digit	congruent	digit_first	consonant	even	8	P	4	$$$$
4	12	incentive	13	580.035	1	4	4	liquid feedback	repeat	digit	incongruent	letter_first	consonant	odd	X	5	4	$$$$
4	12	incentive	14	1039.442	1	4	4	too slow	switch	letter	incongruent	letter_first	vowel	even	U	2	1	$
4	12	incentive	15	1007.195	1	4	4	too slow	repeat	letter	incongruent	letter_first	vowel	even	E	8	4	$$$$
4	12	incentive	16	0				no response	switch	digit	congruent	letter_first	vowel	odd	U	9	1	$
4	12	incentive	17	818.244	1	4	4	liquid feedback	switch	letter	incongruent	digit_first	vowel	even	6	I	4	$$$$
4	12	incentive	18	1237.48	1	3	3	too slow	repeat	letter	incongruent	letter_first	consonant	odd	Z	5	2	$$
4	12	incentive	19	637.541	1	4	4	liquid feedback	repeat	letter	congruent	letter_first	vowel	odd	U	5	2	$$
4	12	incentive	20	738.936	1	3	3	liquid feedback	switch	digit	congruent	letter_first	consonant	even	P	6	1	$
4	12	incentive	21	625.929	1	3	3	liquid feedback	switch	letter	incongruent	letter_first	consonant	odd	P	5	1	$
4	12	incentive	22	1017.882	0	4	3	wrong resp	switch	digit	congruent	letter_first	consonant	even	P	8	2	$$
4	12	incentive	23	0				no response	switch	letter	congruent	digit_first	vowel	odd	3	A	2	$$
4	12	incentive	24	898.909	1	3	3	too slow	switch	digit	congruent	digit_first	consonant	even	4	L	4	$$$$
4	12	incentive	25	743.995	1	4	4	liquid feedback	repeat	digit	incongruent	digit_first	consonant	odd	3	L	2	$$
4	12	incentive	26	878.197	1	3	3	too slow	repeat	digit	incongruent	digit_first	vowel	even	4	I	4	$$$$
4	12	incentive	27	879.205	1	4	4	too slow	switch	letter	congruent	letter_first	vowel	odd	I	7	2	$$
4	12	incentive	28	839.557	1	3	3	liquid feedback	repeat	letter	incongruent	digit_first	consonant	odd	5	P	2	$$
4	12	incentive	29	1306.528	1	3	3	too slow	switch	digit	congruent	digit_first	consonant	even	4	P	2	$$
4	12	incentive	30	678.606	1	4	4	liquid feedback	switch	letter	congruent	letter_first	vowel	odd	U	5	1	$
4	12	incentive	31	1535.289	1	3	3	too slow	switch	digit	incongruent	digit_first	vowel	even	6	A	1	$
4	12	incentive	32	895.575	1	3	3	too slow	switch	letter	congruent	letter_first	consonant	even	Z	8	2	$$
4	12	incentive	33	863.624	1	3	3	liquid feedback	switch	digit	congruent	digit_first	consonant	even	2	L	4	$$$$
4	12	incentive	34	731.565	1	3	3	liquid feedback	repeat	digit	congruent	letter_first	consonant	even	P	6	4	$$$$
4	12	incentive	35	968.69	1	4	4	too slow	repeat	digit	congruent	digit_first	vowel	odd	5	I	2	$$
4	12	incentive	36	804.236	1	4	4	liquid feedback	switch	letter	congruent	letter_first	vowel	odd	I	7	4	$$$$
4	12	incentive	37	1475.508	1	4	4	too slow	switch	digit	incongruent	digit_first	consonant	odd	7	Z	1	$
4	12	incentive	38	1738.424	1	4	4	too slow	repeat	digit	incongruent	letter_first	consonant	odd	L	5	4	$$$$
4	12	incentive	39	596.316	1	3	3	liquid feedback	repeat	digit	congruent	letter_first	consonant	even	X	2	4	$$$$
4	12	incentive	40	1258.306	1	3	3	too slow	switch	letter	incongruent	letter_first	consonant	odd	Z	9	2	$$
4	12	incentive	41	566.323	1	4	4	liquid feedback	repeat	letter	incongruent	digit_first	vowel	even	2	U	4	$$$$
4	12	incentive	42	1062.159	1	4	4	too slow	repeat	letter	incongruent	digit_first	vowel	even	4	U	1	$
4	12	incentive	43	640.22	1	4	4	liquid feedback	repeat	letter	incongruent	letter_first	vowel	even	I	2	4	$$$$
4	12	incentive	44	1011.115	1	4	4	too slow	switch	digit	incongruent	letter_first	consonant	odd	X	5	2	$$
4	12	incentive	45	1153.817	1	4	4	too slow	repeat	digit	congruent	digit_first	vowel	odd	3	I	2	$$
4	12	incentive	46	1066.592	1	4	4	too slow	repeat	digit	congruent	digit_first	vowel	odd	5	E	4	$$$$
4	12	incentive	47	840.695	1	3	3	liquid feedback	switch	letter	congruent	digit_first	consonant	even	6	X	1	$
4	12	incentive	48	1093.974	1	3	3	too slow	repeat	letter	congruent	digit_first	consonant	even	4	L	4	$$$$
4	13	incentive	1	714.231	1	3	3	liquid feedback	repeat	letter	incongruent	letter_first	consonant	odd	P	3	2	$$
4	13	incentive	2	883.896	1	4	4	too slow	switch	digit	incongruent	digit_first	consonant	odd	3	Z	1	$
4	13	incentive	3	1455.184	0	4	3	wrong resp	repeat	digit	congruent	letter_first	consonant	even	P	8	2	$$
4	13	incentive	4	762.843	1	3	3	liquid feedback	repeat	digit	incongruent	digit_first	vowel	even	6	I	2	$$
4	13	incentive	5	638.258	1	3	3	liquid feedback	repeat	digit	incongruent	letter_first	vowel	even	U	6	4	$$$$
4	13	incentive	6	1877.883	1	4	4	too slow	switch	letter	congruent	letter_first	vowel	odd	U	9	1	$
4	13	incentive	7	978.946	1	4	4	too slow	switch	digit	congruent	letter_first	vowel	odd	A	9	4	$$$$
4	13	incentive	8	683.104	1	4	4	liquid feedback	switch	letter	congruent	digit_first	vowel	odd	5	A	2	$$
4	13	incentive	9	824.101	1	3	3	liquid feedback	repeat	letter	congruent	letter_first	consonant	even	X	6	1	$
4	13	incentive	10	655.123	1	4	4	liquid feedback	repeat	letter	incongruent	digit_first	vowel	even	2	E	1	$
4	13	incentive	11	830.277	1	4	4	liquid feedback	switch	digit	congruent	digit_first	vowel	odd	3	I	4	$$$$
4	13	incentive	12	1272.328	1	4	4	too slow	repeat	digit	incongruent	digit_first	consonant	odd	7	L	1	$
4	13	incentive	13	1970.704	0	3	4	wrong resp	switch	letter	incongruent	digit_first	vowel	even	8	E	2	$$
4	13	incentive	14	1560.022	1	4	4	too slow	repeat	letter	incongruent	digit_first	vowel	even	6	E	1	$
4	13	incentive	15	1634.718	1	3	3	too slow	switch	digit	incongruent	letter_first	vowel	even	E	2	4	$$$$
4	13	incentive	16	868.346	1	3	3	liquid feedback	switch	letter	congruent	letter_first	consonant	even	Z	8	2	$$
4	13	incentive	17	1558.877	1	4	4	too slow	switch	digit	incongruent	letter_first	consonant	odd	Z	3	2	$$
4	13	incentive	18	807.035	1	4	4	liquid feedback	repeat	digit	congruent	digit_first	vowel	odd	5	E	1	$
4	13	incentive	19	1065.304	1	3	3	too slow	switch	letter	congruent	digit_first	consonant	even	4	Z	1	$
4	13	incentive	20	1301.412	1	3	3	too slow	switch	digit	incongruent	letter_first	vowel	even	E	4	2	$$
4	13	incentive	21	1478.628	1	4	4	too slow	switch	letter	incongruent	letter_first	vowel	even	U	2	2	$$
4	13	incentive	22	1135.304	1	4	4	too slow	repeat	letter	congruent	digit_first	vowel	odd	3	I	1	$
4	13	incentive	23	686.212	1	4	4	liquid feedback	repeat	letter	congruent	letter_first	vowel	odd	A	7	4	$$$$
4	13	incentive	24	730.236	1	3	3	liquid feedback	repeat	letter	congruent	digit_first	consonant	even	6	X	4	$$$$
4	13	incentive	25	523.318	1	3	3	liquid feedback	repeat	letter	incongruent	letter_first	consonant	odd	X	7	4	$$$$
4	13	incentive	26	510.096	1	3	3	liquid feedback	repeat	letter	incongruent	letter_first	consonant	odd	X	9	2	$$
4	13	incentive	27	638.015	1	3	3	liquid feedback	repeat	letter	congruent	digit_first	consonant	even	6	P	1	$
4	13	incentive	28	1339.155	1	3	3	too slow	switch	digit	incongruent	letter_first	vowel	even	U	4	1	$
4	13	incentive	29	933.258	1	3	3	too slow	repeat	digit	incongruent	letter_first	vowel	even	E	8	1	$
4	13	incentive	30	526.09	1	3	3	liquid feedback	switch	letter	incongruent	digit_first	consonant	odd	3	X	4	$$$$
4	13	incentive	31	0				no response	repeat	letter	congruent	digit_first	vowel	odd	9	I	2	$$
4	13	incentive	32	0				no response	repeat	letter	congruent	letter_first	vowel	odd	E	7	2	$$
4	13	incentive	33	909.772	1	3	3	too slow	switch	digit	congruent	digit_first	consonant	even	8	L	2	$$
4	13	incentive	34	549.059	1	3	3	liquid feedback	switch	letter	congruent	digit_first	consonant	even	4	X	4	$$$$
4	13	incentive	35	743.902	1	3	3	liquid feedback	switch	digit	congruent	digit_first	consonant	even	4	P	4	$$$$
4	13	incentive	36	1430.643	1	4	4	too slow	switch	letter	incongruent	digit_first	vowel	even	6	A	1	$
4	13	incentive	37	622.461	1	4	4	liquid feedback	switch	digit	congruent	digit_first	vowel	odd	5	A	4	$$$$
4	13	incentive	38	1229.852	1	4	4	too slow	switch	letter	incongruent	digit_first	vowel	even	6	A	1	$
4	13	incentive	39	1140.901	1	3	3	too slow	switch	digit	congruent	letter_first	consonant	even	X	8	2	$$
4	13	incentive	40	792.189	1	4	4	liquid feedback	repeat	digit	incongruent	letter_first	consonant	odd	Z	3	4	$$$$
4	13	incentive	41	1003.439	1	3	3	too slow	switch	letter	incongruent	letter_first	consonant	odd	Z	3	2	$$
4	13	incentive	42	566.568	1	3	3	liquid feedback	repeat	letter	incongruent	digit_first	consonant	odd	7	Z	4	$$$$
4	13	incentive	43	569.567	1	3	3	liquid feedback	repeat	letter	congruent	digit_first	consonant	even	6	X	1	$
4	13	incentive	44	1095.563	1	3	3	too slow	repeat	letter	incongruent	letter_first	consonant	odd	P	7	2	$$
4	13	incentive	45	1569.875	1	4	4	too slow	switch	digit	congruent	digit_first	vowel	odd	3	A	1	$
4	13	incentive	46	811.848	1	3	3	liquid feedback	repeat	digit	congruent	letter_first	consonant	even	X	4	4	$$$$
4	13	incentive	47	1180.243	1	4	4	too slow	switch	letter	incongruent	letter_first	vowel	even	A	4	4	$$$$
4	13	incentive	48	1072.187	1	3	3	too slow	repeat	letter	congruent	letter_first	consonant	even	Z	8	4	$$$$
4	14	incentive	1	1053.177	1	4	4	too slow	repeat	digit	congruent	digit_first	vowel	odd	9	E	1	$
4	14	incentive	2	542.645	1	3	3	liquid feedback	switch	letter	incongruent	digit_first	consonant	odd	3	Z	1	$
4	14	incentive	3	646.092	1	3	3	liquid feedback	switch	digit	incongruent	letter_first	vowel	even	I	2	1	$
4	14	incentive	4	1297.48	1	4	4	too slow	switch	letter	incongruent	letter_first	vowel	even	I	2	4	$$$$
4	14	incentive	5	1608.734	1	4	4	too slow	switch	digit	incongruent	letter_first	consonant	odd	X	9	1	$
4	14	incentive	6	639.096	1	3	3	liquid feedback	switch	letter	congruent	letter_first	consonant	even	Z	8	1	$
4	14	incentive	7	603.365	1	3	3	liquid feedback	repeat	letter	congruent	letter_first	consonant	even	P	2	1	$
4	14	incentive	8	765.167	1	3	3	liquid feedback	repeat	letter	congruent	digit_first	consonant	even	2	Z	1	$
4	14	incentive	9	1479.035	0	3	4	wrong resp	switch	digit	incongruent	digit_first	consonant	odd	7	Z	1	$
4	14	incentive	10	1009.405	1	4	4	too slow	switch	letter	congruent	digit_first	vowel	odd	9	I	4	$$$$
4	14	incentive	11	618.364	1	3	3	liquid feedback	repeat	letter	incongruent	letter_first	consonant	odd	P	9	4	$$$$
4	14	incentive	12	728.158	1	3	3	liquid feedback	repeat	letter	congruent	digit_first	consonant	even	2	Z	1	$
4	14	incentive	13	677.082	1	3	3	liquid feedback	repeat	letter	congruent	digit_first	consonant	even	8	Z	4	$$$$
4	14	incentive	14	1419.09	1	3	3	too slow	switch	digit	incongruent	letter_first	vowel	even	I	4	4	$$$$
4	14	incentive	15	767.928	1	4	4	liquid feedback	switch	letter	incongruent	digit_first	vowel	even	2	E	2	$$
4	14	incentive	16	841.084	1	3	3	liquid feedback	repeat	letter	congruent	letter_first	consonant	even	X	8	1	$
4	14	incentive	17	1728.009	1	4	4	too slow	switch	digit	congruent	digit_first	vowel	odd	5	U	2	$$
4	14	incentive	18	1450.7	1	4	4	too slow	repeat	digit	incongruent	digit_first	consonant	odd	7	Z	2	$$
4	14	incentive	19	650.128	1	4	4	liquid feedback	repeat	digit	congruent	digit_first	vowel	odd	3	A	2	$$
4	14	incentive	20	768.232	1	3	3	liquid feedback	repeat	digit	incongruent	letter_first	vowel	even	I	4	4	$$$$
4	14	incentive	21	619.49	1	3	3	liquid feedback	switch	letter	congruent	letter_first	consonant	even	P	8	4	$$$$
4	14	incentive	22	817.739	1	4	4	liquid feedback	repeat	letter	congruent	letter_first	vowel	odd	U	5	2	$$
4	14	incentive	23	1116.518	1	4	4	too slow	switch	digit	incongruent	digit_first	consonant	odd	3	L	4	$$$$
